"Time (s)"	"Linear Acceleration x (m/s^2)"	"Linear Acceleration y (m/s^2)"	"Linear Acceleration z (m/s^2)"	"Absolute acceleration (m/s^2)"
1.586653750E-1	3.145601023E-3	5.711907428E-4	-2.015757430E-1	2.016010943E-1
1.686753751E-1	-2.169042919E-4	-1.112304870E-3	-2.102576888E-1	2.102607428E-1
1.787153750E-1	3.231500275E-3	7.310938183E-4	-2.122030574E-1	2.122289204E-1
1.887563750E-1	-2.311577937E-3	-3.678931044E-3	-2.054658955E-1	2.055118297E-1
1.987963750E-1	-5.512645282E-4	-5.541927041E-3	-2.160920405E-1	2.161637963E-1
2.088363750E-1	7.186456444E-3	-8.427628465E-3	-2.165387678E-1	2.168218348E-1
2.188463750E-1	-9.217980159E-3	-3.795482498E-3	-2.081567842E-1	2.083953542E-1
2.288863750E-1	-1.790746339E-3	1.816766448E-3	-2.172883809E-1	2.173033545E-1
2.389273751E-1	-3.420420159E-3	-2.140208837E-3	-2.136964363E-1	2.137345238E-1
2.489673750E-1	-1.090279140E-2	-6.800101670E-3	-2.100875348E-1	2.104801286E-1
2.589773750E-1	-2.176059578E-3	-7.613714319E-4	-2.087157780E-1	2.087285100E-1
2.690173750E-1	5.217269529E-3	-1.024258593E-3	-2.061921197E-1	2.062606585E-1
2.790573750E-1	-2.332938546E-3	1.021389803E-3	-1.961746699E-1	1.961911999E-1
2.890983750E-1	1.579067996E-3	5.919556674E-3	-2.036579365E-1	2.037500667E-1
2.991383750E-1	-4.176620459E-3	5.570770260E-3	-2.074159420E-1	2.075327700E-1
3.091483751E-1	-6.377631202E-3	-1.831210898E-3	-2.071089631E-1	2.072152266E-1
3.191883750E-1	-5.652430281E-4	3.341263477E-3	-2.119007564E-1	2.119278511E-1
3.292283750E-1	-4.437470231E-3	3.293636078E-3	-2.078691012E-1	2.079425459E-1
3.392683750E-1	-4.632977368E-3	-3.397743925E-3	-2.069639522E-1	2.070436829E-1
3.493093750E-1	-1.178513624E-2	2.230338184E-3	-2.044110578E-1	2.047626538E-1
3.593183750E-1	-1.650787750E-3	-3.420429295E-3	-2.214726484E-1	2.215052108E-1
3.693593750E-1	-7.444483107E-3	3.050967492E-4	-2.118843842E-1	2.120153430E-1
3.793993751E-1	-2.492695441E-3	5.455717156E-3	-2.121814227E-1	2.122661879E-1
3.894393750E-1	-4.120880049E-3	-2.869283538E-3	-1.969178510E-1	1.969818633E-1
3.994803750E-1	-4.383319532E-3	-8.951794803E-3	-1.865864056E-1	1.868524415E-1
4.094893750E-1	-1.331246551E-4	-2.767688166E-3	-1.921254730E-1	1.921454532E-1
4.195303750E-1	-1.254531995E-2	-1.245491652E-2	-2.032059467E-1	2.039734462E-1
4.295703750E-1	-1.065145249E-2	2.311276440E-3	-2.118902314E-1	2.121703693E-1
4.396103750E-1	-4.254424972E-3	-9.814514928E-3	-2.030580121E-1	2.033395710E-1
4.496503751E-1	-9.456948554E-3	-3.483131547E-3	-2.042572761E-1	2.045057479E-1
4.596603750E-1	5.294790817E-3	5.034269951E-3	-2.079959857E-1	2.081242628E-1
4.697013750E-1	4.067926202E-4	-3.517849389E-3	-2.066487873E-1	2.066791282E-1
4.797413750E-1	-4.822491109E-3	1.081552170E-4	-1.991661054E-1	1.992245107E-1
4.897813750E-1	-3.223825805E-3	-7.981632091E-3	-1.988649738E-1	1.990511927E-1
4.997913750E-1	1.001283604E-2	-3.578167073E-3	-1.900403559E-1	1.903375870E-1
5.098313750E-1	2.807083782E-3	-6.159420423E-3	-1.948309797E-1	1.949485287E-1
5.198713751E-1	1.815514779E-3	-6.780924629E-3	-1.946842146E-1	1.948107298E-1
5.299123750E-1	3.789626146E-3	3.513080254E-3	-1.966342610E-1	1.967021495E-1
5.399523750E-1	-1.907727197E-3	-4.040882830E-4	-1.907917231E-1	1.908016885E-1
5.499623750E-1	-1.233955278E-2	-3.953412138E-3	-1.904929304E-1	1.909331050E-1
5.600023750E-1	-1.006731564E-2	-2.662474830E-3	-1.861513728E-1	1.864424126E-1
5.700423750E-1	-4.832888190E-3	-5.327672269E-3	-1.845065510E-1	1.846467121E-1
5.800833750E-1	-3.129968857E-3	2.695913594E-3	-1.771694648E-1	1.772176174E-1
5.901233751E-1	-4.309672024E-3	-3.720217869E-3	-1.854029292E-1	1.854903217E-1
6.001333750E-1	-1.220611749E-2	-1.089681627E-2	-1.934867048E-1	1.941773284E-1
6.101733750E-1	-3.626214741E-3	-4.934200337E-3	-2.032141328E-1	2.033063686E-1
6.202133750E-1	2.091859672E-3	-1.027136520E-3	-1.854017597E-1	1.854164054E-1
6.302543750E-1	6.117146881E-3	-2.841317402E-3	-1.801661628E-1	1.802923703E-1
6.402943750E-1	1.146236993E-3	-9.827872161E-3	-1.898982686E-1	1.901558659E-1
6.503043750E-1	-1.343392314E-2	-9.199387841E-3	-2.078620845E-1	2.084987895E-1
6.603443751E-1	-9.887705622E-3	-5.404608836E-3	-1.966325068E-1	1.969551199E-1
6.703843750E-1	-1.060479353E-2	2.248921366E-3	-1.907964009E-1	1.911041232E-1
6.804243750E-1	-6.725522261E-3	2.494659740E-4	-1.963407308E-1	1.964560446E-1
6.904653750E-1	-6.731141070E-3	1.239801580E-3	-1.867629915E-1	1.868883634E-1
7.004743750E-1	-1.364359151E-2	7.326287124E-4	-1.845153219E-1	1.850205079E-1
7.105153750E-1	-9.367732834E-3	1.489231009E-3	-1.803222835E-1	1.805715873E-1
7.205553750E-1	-3.739696406E-3	-4.059164515E-3	-1.864618599E-1	1.865435267E-1
7.305953751E-1	-3.282206599E-3	-1.134749955E-2	-1.940994930E-1	1.944586121E-1
7.406053750E-1	-2.013890706E-3	-7.643781798E-3	-1.875149435E-1	1.876814780E-1
7.506453750E-1	2.687572176E-3	1.719720941E-4	-1.710497689E-1	1.710709679E-1
7.606863750E-1	2.840303276E-3	-2.667901777E-3	-1.789838558E-1	1.790262709E-1
7.707263750E-1	-1.674807016E-3	-1.789677395E-3	-1.873658395E-1	1.873818714E-1
7.807663750E-1	-2.449983358E-3	1.431215666E-3	-1.857204330E-1	1.857421062E-1
7.907763750E-1	-2.324039815E-3	4.254297065E-3	-1.930563498E-1	1.931172038E-1
8.008163751E-1	1.210919076E-2	-4.963144055E-3	-1.956022274E-1	1.960395284E-1
8.108573750E-1	1.364274183E-3	-8.495081579E-3	-1.873716867E-1	1.875691249E-1
8.208973750E-1	-1.087219401E-2	1.275423914E-4	-1.728530502E-1	1.731946819E-1
8.309373750E-1	-8.290995480E-3	3.258415740E-3	-1.797358078E-1	1.799564349E-1
8.409473751E-1	-1.066599743E-2	4.109057710E-3	-1.884177536E-1	1.887641325E-1
8.509873750E-1	4.410600448E-3	-2.043117648E-3	-1.991947567E-1	1.992540560E-1
8.610273750E-1	-7.075313665E-3	-9.033920774E-3	-1.938042086E-1	1.941436146E-1
8.710683751E-1	1.409087609E-3	-3.059025686E-3	-1.743429208E-1	1.743754489E-1
8.811083750E-1	4.719452206E-3	-3.059482500E-3	-1.683542025E-1	1.684481260E-1
8.911183750E-1	4.740895042E-3	8.949428508E-3	-1.869167733E-1	1.871909413E-1
9.011583750E-1	5.609224839E-3	-3.867074344E-3	-1.870676315E-1	1.871916569E-1
9.111983750E-1	-2.105774218E-3	-7.587876935E-3	-1.858695370E-1	1.860362732E-1
9.212393750E-1	8.141699620E-4	-2.976707853E-3	-1.824272811E-1	1.824533819E-1
9.312793750E-1	-6.223392617E-3	-6.225740639E-3	-1.779366195E-1	1.781542338E-1
9.412893750E-1	-1.098817902E-2	-1.044667203E-2	-1.689582199E-1	1.696371218E-1
9.513293750E-1	1.179776257E-3	7.517235260E-4	-1.918617636E-1	1.918668635E-1
9.613693750E-1	-2.838814063E-3	-2.867967915E-3	-1.929084152E-1	1.929506174E-1
9.713781667E-1	-3.209363082E-3	4.633123549E-3	-1.773378646E-1	1.774274051E-1
9.813871667E-1	1.792445686E-4	-2.692779852E-3	-1.813777059E-1	1.813977822E-1
9.914281666E-1	8.052767124E-3	-4.707419733E-3	-1.816788375E-1	1.819181323E-1
1.001468167E0	7.789678965E-3	-5.046055745E-3	-1.861706686E-1	1.864018767E-1
1.011508167E0	5.938167265E-3	5.744405156E-3	-1.759953439E-1	1.761891628E-1
1.021548167E0	4.913232587E-3	6.156195318E-3	-1.715081906E-1	1.716889573E-1
1.031558167E0	3.118521105E-3	5.387944272E-3	-1.792920041E-1	1.794000498E-1
1.041598167E0	-4.747299571E-4	1.292545293E-3	-1.676156992E-1	1.676213550E-1
1.051639167E0	-8.558121873E-3	6.776164630E-3	-1.744996262E-1	1.748407200E-1
1.061679167E0	-9.567223387E-3	-1.928338632E-3	-1.755462778E-1	1.758173652E-1
1.071719167E0	-5.932566728E-3	-8.851679508E-3	-1.810824215E-1	1.813956752E-1
1.081729167E0	-5.226716436E-3	3.494807705E-3	-1.863197726E-1	1.864258295E-1
1.091769167E0	-9.033226417E-3	9.601475280E-3	-1.831739706E-1	1.836477362E-1
1.101810167E0	-3.818451092E-3	3.482026057E-3	-1.813753670E-1	1.814489704E-1
1.111850167E0	-7.299545249E-3	1.803445760E-3	-1.834686702E-1	1.836226804E-1
1.121890167E0	-4.460310917E-3	-1.018415032E-2	-1.749375826E-1	1.752905277E-1
1.131900167E0	-1.341269044E-3	-5.229183231E-3	-1.661071175E-1	1.661948190E-1
1.141940167E0	-3.023211490E-3	-1.193590304E-3	-1.840715182E-1	1.841002126E-1
1.151981167E0	5.807381496E-4	-1.084402688E-3	-1.843720651E-1	1.843761686E-1
1.162021167E0	3.746036980E-3	6.088486388E-3	-1.855684054E-1	1.857060460E-1
1.172061167E0	5.672767628E-3	7.652643984E-3	-1.857169247E-1	1.859610695E-1
1.182071167E0	4.709055126E-3	-1.403852524E-3	-1.731442416E-1	1.732139555E-1
1.192111167E0	2.850115635E-3	-3.990615048E-3	-1.738926852E-1	1.739618180E-1
1.202151167E0	-2.942675231E-3	-6.002578000E-3	-1.848223007E-1	1.849431618E-1
1.212192167E0	-5.386984963E-3	-3.016377557E-3	-1.746458066E-1	1.747549023E-1
1.222232167E0	-1.004619258E-2	-9.563313061E-3	-1.646166623E-1	1.651999650E-1
1.232242167E0	-4.122104309E-4	-3.602889832E-4	-1.735968161E-1	1.735976793E-1
1.242282167E0	-1.770591717E-3	-2.452998329E-3	-1.747919869E-1	1.748181652E-1
1.252322167E0	-6.673317589E-3	-1.032261970E-2	-1.791312057E-1	1.795524394E-1
1.262363167E0	-2.405736381E-3	-6.054654764E-3	-1.815268099E-1	1.816436873E-1
1.272372167E0	-3.042479893E-3	5.176064931E-4	-1.773349410E-1	1.773617938E-1
1.282413167E0	5.922133103E-5	-6.771422904E-3	-1.725449020E-1	1.726777313E-1
1.292453167E0	3.286098652E-3	-5.190628152E-3	-1.743411666E-1	1.744493721E-1
1.302493167E0	-5.351079404E-3	-3.156893458E-3	-1.782354122E-1	1.783436632E-1
1.312534167E0	-1.388711890E-2	1.375228576E-3	-1.804824972E-1	1.810212008E-1
1.322543167E0	-6.021581450E-3	3.918904429E-3	-1.771893454E-1	1.773349412E-1
1.332584167E0	-1.224340263E-2	5.174913760E-3	-1.682103610E-1	1.687347214E-1
1.342624167E0	-4.760601986E-3	6.571941487E-3	-1.795872885E-1	1.797705425E-1
1.352664167E0	-1.151796416E-2	-9.022865882E-3	-1.800375241E-1	1.806310762E-1
1.362704167E0	-7.439796198E-3	-3.807633743E-3	-1.686611813E-1	1.688681223E-1
1.372714167E0	-2.579014963E-3	-3.300643601E-3	-1.677618796E-1	1.678141645E-1
1.382754167E0	6.646858938E-3	-1.114076394E-2	-1.759953439E-1	1.764728263E-1
1.392795167E0	4.863083577E-3	-8.314612750E-3	-1.743499374E-1	1.746158156E-1
1.402835167E0	6.524231862E-3	-5.476840222E-3	-1.707574081E-1	1.709697453E-1
1.412875167E0	6.753488397E-3	-8.043164900E-3	-1.852783835E-1	1.855758106E-1
1.422885167E0	4.507298777E-3	-2.189014815E-3	-1.757000595E-1	1.757714950E-1
1.432925167E0	1.863242676E-3	-5.352577753E-3	-1.716596335E-1	1.717531704E-1
1.442966167E0	-1.217657078E-2	-4.682888836E-4	-1.688155478E-1	1.692547706E-1
1.453006167E0	-1.932988082E-2	7.351430152E-3	-1.706112278E-1	1.718600560E-1
1.463046167E0	-1.533837955E-2	3.553809766E-3	-1.670175290E-1	1.677580116E-1
1.473056167E0	-1.590273636E-2	1.139204803E-2	-1.682150388E-1	1.693486789E-1
1.483096167E0	-1.468276964E-2	-4.465125734E-3	-1.758468246E-1	1.765152311E-1
1.493137167E0	-7.121305671E-3	-7.911017826E-3	-1.867735165E-1	1.870765717E-1
1.503177167E0	-1.043669522E-2	2.155137509E-3	-1.785400522E-1	1.788578191E-1
1.513217167E0	-3.667145250E-3	-1.491012583E-3	-1.680612570E-1	1.681078736E-1
1.523227167E0	3.652088670E-3	-9.863065090E-4	-1.680618417E-1	1.681044116E-1
1.533267167E0	-2.439485779E-3	3.096904680E-3	-1.725519186E-1	1.725969482E-1
1.543307167E0	4.797311537E-3	6.648128880E-3	-1.644693124E-1	1.646735150E-1
1.553348167E0	1.345955953E-4	4.183289940E-3	-1.724004757E-1	1.724512745E-1
1.563357167E0	-2.944438532E-3	6.656232756E-4	-1.729992306E-1	1.730255662E-1
1.573398167E0	-1.282358347E-3	5.270771552E-3	-1.725501645E-1	1.726354098E-1
1.583438167E0	-3.933376288E-3	4.680504268E-3	-1.697049093E-1	1.698150017E-1
1.593478167E0	-2.500022734E-3	-2.328836359E-3	-1.737476742E-1	1.737812645E-1
1.603519167E0	1.033824272E-3	3.554385351E-3	-1.726980990E-1	1.727377661E-1
1.613528167E0	-8.326946720E-3	-5.194236981E-3	-1.698545980E-1	1.701378929E-1
1.623569167E0	-6.889061574E-3	-1.161293574E-2	-1.828769320E-1	1.833747303E-1
1.633609167E0	-8.037317684E-3	-1.138948074E-2	-1.571287179E-1	1.577458486E-1
1.643649167E0	-3.242646530E-3	-1.040091757E-3	-1.614691061E-1	1.615050116E-1
1.653690167E0	-9.666817915E-4	-4.761369433E-4	-1.732927608E-1	1.732961112E-1
1.663699167E0	-1.335275648E-3	1.092250748E-3	-1.722426009E-1	1.722512396E-1
1.673740167E0	-5.019140281E-3	-1.583544770E-3	-1.735903841E-1	1.736701495E-1
1.683780167E0	-5.699025281E-3	-3.485068437E-3	-1.726916671E-1	1.728208219E-1
1.693820167E0	-6.858436782E-3	4.720484605E-3	-1.689494491E-1	1.691544781E-1
1.703860167E0	-1.478112163E-3	-6.594809582E-3	-1.578730685E-1	1.580176638E-1
1.713870167E0	-6.295998590E-3	-6.421594955E-3	-1.589220589E-1	1.591763088E-1
1.723910167E0	-2.511168988E-3	2.007851629E-3	-1.542811239E-1	1.543146222E-1
1.733951167E0	3.628242994E-3	-2.964876378E-3	-1.578730685E-1	1.579425857E-1
1.743991167E0	2.162300348E-3	-2.348981844E-3	-1.707468832E-1	1.707767296E-1
1.754031167E0	-1.019334141E-4	-1.283540580E-2	-1.704475057E-1	1.709301326E-1
1.764041167E0	-2.866387339E-3	-5.737233181E-3	-1.691014767E-1	1.692230523E-1
1.774081167E0	-4.713321766E-3	-4.351634933E-3	-1.716461849E-1	1.717660180E-1
1.784122167E0	-3.526949119E-3	-7.689417489E-3	-1.598201913E-1	1.600439316E-1
1.794162167E0	-2.538239770E-4	4.280216675E-3	-1.643120223E-1	1.643679572E-1
1.804172167E0	-9.755156552E-3	-5.760576362E-3	-1.659591830E-1	1.663454169E-1
1.814212167E0	-9.177963277E-3	-4.661016595E-3	-1.637144369E-1	1.640377302E-1
1.824252167E0	-1.743447846E-2	-6.310287723E-3	-1.619181722E-1	1.629763028E-1
1.834293167E0	-7.989333970E-3	-1.465769056E-2	-1.676063436E-1	1.684356369E-1
1.844333167E0	-8.307669181E-3	-1.165841611E-2	-1.746417135E-1	1.752274640E-1
1.854343167E0	-1.416803193E-2	3.327184478E-3	-1.803287154E-1	1.809150323E-1
1.864383167E0	-8.552210703E-3	8.192524714E-3	-1.544325668E-1	1.548860079E-1
1.874423167E0	-1.220524041E-3	9.298205785E-3	-1.625151730E-1	1.627855268E-1
1.884463167E0	-5.802557543E-3	7.948211599E-3	-1.673069662E-1	1.675961356E-1
1.894504167E0	-1.111345561E-2	-1.982096471E-3	-1.640138143E-1	1.644018519E-1
1.904514167E0	-8.753601601E-3	-3.075169483E-3	-1.726975143E-1	1.729465630E-1
1.914554167E0	1.805720693E-3	-6.686090101E-3	-1.764403170E-1	1.765761872E-1
1.924594167E0	7.121470124E-3	-8.952507433E-3	-1.631186056E-1	1.635192411E-1
1.934634167E0	5.456968825E-3	-2.942739185E-3	-1.706042111E-1	1.707168271E-1
1.944675167E0	-1.419923231E-3	-4.845404886E-3	-1.652160019E-1	1.652931378E-1
1.954684167E0	-4.123273753E-3	1.061845226E-3	-1.583297360E-1	1.583869761E-1
1.964697750E0	-7.244508332E-3	-9.196491642E-3	-1.649142855E-1	1.653293075E-1
1.974737750E0	-3.657506481E-3	-1.254330084E-2	-1.688056076E-1	1.693104985E-1
1.984777750E0	-6.738075502E-3	-8.031306015E-3	-1.749434298E-1	1.752572600E-1
1.994818750E0	-7.713820478E-3	-9.631433124E-3	-1.601254159E-1	1.606001754E-1
2.004827750E0	-1.193374688E-2	-1.426738892E-3	-1.634191525E-1	1.638605178E-1
2.014868750E0	-1.079554067E-2	-1.161273474E-2	-1.782389206E-1	1.789427621E-1
2.024908750E0	-1.547103826E-2	4.734326061E-3	-1.756942123E-1	1.764375898E-1
2.034948750E0	-1.070534737E-2	2.577023255E-3	-1.746452218E-1	1.749919970E-1
2.044988750E0	-5.891581401E-3	-3.445873819E-3	-1.646160775E-1	1.647575120E-1
2.054998750E0	-5.463154083E-3	-1.120399609E-3	-1.655147946E-1	1.656087213E-1
2.065038750E0	-3.097745217E-3	-1.205692213E-2	-1.575795382E-1	1.580704788E-1
2.075079750E0	-1.440315396E-3	8.758763596E-4	-1.647640121E-1	1.647726353E-1
2.085119750E0	4.859584384E-5	1.378184161E-2	-1.593758029E-1	1.599705850E-1
2.095129750E0	1.689781370E-3	6.317898240E-3	-1.611738217E-1	1.613064537E-1
2.105169750E0	-5.892074760E-4	2.075030655E-4	-1.698569369E-1	1.698580856E-1
2.115209750E0	5.451121610E-3	-6.762697762E-3	-1.617731613E-1	1.620061867E-1
2.125250750E0	3.671969203E-3	-5.836069398E-3	-1.524930453E-1	1.526488517E-1
2.135290750E0	-1.162508698E-3	-1.313528574E-2	-1.556394321E-1	1.561970549E-1
2.145300750E0	4.744193237E-4	-4.731475543E-3	-1.756988901E-1	1.757632269E-1
2.155340750E0	-2.860220354E-3	-5.748315481E-3	-1.710585397E-1	1.711789941E-1
2.165380750E0	-1.181059903E-2	-8.156600883E-3	-1.674648410E-1	1.680788308E-1
2.175421750E0	-1.521587125E-2	-7.768272674E-3	-1.508493930E-1	1.518137285E-1
2.185461750E0	-8.005687902E-3	9.231775934E-3	-1.557873666E-1	1.562658642E-1
2.195471750E0	-9.917562967E-3	6.727166791E-3	-1.728524655E-1	1.732673878E-1
2.205511750E0	-1.522732814E-2	1.178953992E-3	-1.731524277E-1	1.738246952E-1
2.215551750E0	-2.600192847E-3	1.051713098E-3	-1.569866306E-1	1.570116852E-1
2.225591750E0	-4.305323157E-3	1.717985049E-4	-1.625256979E-1	1.625828030E-1
2.235632750E0	3.760344386E-3	-3.642267175E-3	-1.598324704E-1	1.599181819E-1
2.245642750E0	-2.490840778E-3	1.537086815E-3	-1.587858188E-1	1.588127929E-1
2.255682750E0	7.618519999E-3	8.264637329E-3	-1.665696323E-1	1.669484605E-1
2.265722750E0	-9.091689438E-4	6.286652181E-3	-1.599833286E-1	1.601093814E-1
2.275762750E0	1.460186793E-3	-1.206216635E-3	-1.616310740E-1	1.616421702E-1
2.285803750E0	5.311829969E-5	-2.431272268E-3	-1.605838376E-1	1.606022503E-1
2.295812750E0	-9.364407230E-4	-6.896973588E-5	-1.565428269E-1	1.565456430E-1
2.305853750E0	-2.827220131E-3	-7.099205023E-3	-1.528011936E-1	1.529921457E-1
2.315893750E0	-6.755772466E-3	-2.452760786E-3	-1.665725559E-1	1.667275408E-1
2.325933750E0	-2.007865333E-2	-6.762843942E-3	-1.653750461E-1	1.667267053E-1
2.335974750E0	-2.611668007E-3	-5.535202743E-3	-1.733085483E-1	1.734165857E-1
2.345983750E0	-9.913862776E-4	3.688313998E-3	-1.694172263E-1	1.694602699E-1
2.356024750E0	-4.024346173E-4	1.813111939E-3	-1.584887803E-1	1.584996618E-1
2.366064750E0	-4.481260395E-3	-3.043512292E-3	-1.590881199E-1	1.591803208E-1
2.376104750E0	-5.404837243E-3	-3.208641317E-3	-1.569924778E-1	1.571182539E-1
2.386114750E0	-2.937805597E-3	-1.190301245E-3	-1.661234897E-1	1.661537281E-1
2.396154750E0	5.680752732E-4	-8.188961567E-3	-1.644774985E-1	1.646822071E-1
2.406194750E0	-7.118455153E-3	-5.405001696E-3	-1.713637644E-1	1.715966964E-1
2.416235750E0	-6.937693963E-3	3.508429890E-3	-1.664252061E-1	1.666066922E-1
2.426275750E0	-7.781401500E-3	-5.147349620E-3	-1.493612766E-1	1.496523851E-1
2.436285750E0	-3.277474009E-3	1.564769726E-4	-1.517557114E-1	1.517911798E-1
2.446325750E0	-4.788412806E-4	-6.643560743E-3	-1.635811204E-1	1.637166733E-1
2.456365750E0	-1.108082084E-2	-9.798562992E-4	-1.610375816E-1	1.614213350E-1
2.466406750E0	-1.601086417E-3	3.185919402E-3	-1.568462974E-1	1.568868209E-1
2.476446750E0	-2.477319092E-3	-5.040446073E-3	-1.580443919E-1	1.581441526E-1
2.486456750E0	-5.229859315E-3	-2.656316981E-3	-1.604399961E-1	1.605471887E-1
2.496496750E0	-7.069311133E-3	2.862933828E-3	-1.679261863E-1	1.680993028E-1
2.506536750E0	-1.895639906E-3	9.844564134E-3	-1.715204698E-1	1.718132138E-1
2.516577750E0	1.465029018E-3	-5.417710254E-3	-1.676279783E-1	1.677219038E-1
2.526617750E0	2.237537568E-3	-4.542637886E-3	-1.622380149E-1	1.623170220E-1
2.536627750E0	-2.901169136E-3	-8.036760371E-3	-1.507125682E-1	1.509545776E-1
2.546667750E0	-7.489205170E-3	-1.003938605E-2	-1.586472398E-1	1.591408941E-1
2.556707750E0	-5.823452203E-3	-3.738654871E-3	-1.721192247E-1	1.722582876E-1
2.566747750E0	-4.599840101E-4	-4.078378100E-3	-1.715222239E-1	1.715713206E-1
2.576788750E0	1.796054514E-3	-1.797050368E-3	-1.703258836E-1	1.703448321E-1
2.586798750E0	-1.530243745E-3	-6.665496938E-3	-1.674817979E-1	1.676213684E-1
2.596838750E0	-1.204975015E-2	-3.889503898E-3	-1.514668590E-1	1.519951778E-1
2.606878750E0	-6.864685994E-3	-1.067654070E-2	-1.529643309E-1	1.534900615E-1
2.616918750E0	2.567265714E-3	-3.733894872E-3	-1.547600108E-1	1.548263343E-1
2.626928750E0	-1.162785527E-2	-3.940018360E-4	-1.553570116E-1	1.557920515E-1
2.636968750E0	-5.798501037E-3	3.124057688E-3	-1.598459190E-1	1.599815620E-1
2.647009750E0	8.181478959E-3	3.118612468E-3	-1.607434666E-1	1.609817518E-1
2.657049750E0	6.049775993E-3	-3.205005080E-4	-1.692739695E-1	1.693823464E-1
2.667089750E0	8.827897785E-3	-8.177815313E-3	-1.658311290E-1	1.662671699E-1
2.677099750E0	5.842510471E-3	3.250814360E-3	-1.546073985E-1	1.547518995E-1
2.687139750E0	-2.013735389E-3	7.507404629E-3	-1.583507860E-1	1.585414383E-1
2.697180750E0	-8.823265694E-4	-5.171012571E-3	-1.649353355E-1	1.650187346E-1
2.707220750E0	3.341866471E-4	-2.481311643E-3	-1.611907786E-1	1.612102221E-1
2.717260750E0	-1.009484324E-2	-2.524096817E-3	-1.543045127E-1	1.546549695E-1
2.727270750E0	-4.933030894E-3	-2.556832088E-3	-1.578947031E-1	1.579924348E-1
2.737310750E0	-8.224967625E-3	-7.004215177E-3	-1.686717063E-1	1.690173176E-1
2.747350750E0	1.090871170E-4	-2.243165514E-3	-1.655288279E-1	1.655440623E-1
2.757391750E0	5.236738930E-3	-9.569059778E-4	-1.664275450E-1	1.665126626E-1
2.767431750E0	2.689618701E-3	-3.980099196E-3	-1.676256394E-1	1.676944550E-1
2.777441750E0	5.326877413E-3	1.413043616E-3	-1.590939671E-1	1.591893925E-1
2.787481750E0	-1.091401074E-3	7.085390976E-3	-1.589442784E-1	1.591058690E-1
2.797521750E0	2.629456334E-3	8.983598175E-3	-1.507119834E-1	1.510023875E-1
2.807562750E0	-5.255559655E-3	1.212771912E-2	-1.445741612E-1	1.451771007E-1
2.817602750E0	3.101646407E-3	4.059603056E-3	-1.472668040E-1	1.473553940E-1
2.827612750E0	-4.930545827E-3	3.724648962E-3	-1.599897605E-1	1.601090465E-1
2.837652750E0	3.119124100E-4	-6.658480279E-3	-1.541501462E-1	1.542942003E-1
2.847692750E0	1.264555402E-2	-8.444311302E-3	-1.502564853E-1	1.510239313E-1
2.857733750E0	5.119018033E-3	-5.201737862E-3	-1.647757065E-1	1.649372483E-1
2.867773750E0	4.299896210E-4	-6.362145217E-3	-1.704621238E-1	1.705813513E-1
2.877783750E0	-1.309776306E-3	-1.470766598E-3	-1.719590110E-1	1.719702885E-1
2.887823750E0	-2.262159828E-3	-1.366695296E-4	-1.662702549E-1	1.662856990E-1
2.897863750E0	-1.007301668E-2	-5.760749951E-3	-1.469604099E-1	1.474178211E-1
2.907903750E0	-1.145362652E-2	1.119256661E-2	-1.538472605E-1	1.546785010E-1
2.917913750E0	-4.599109199E-3	9.130025245E-3	-1.728577280E-1	1.731597624E-1
2.927954750E0	-2.316210028E-3	-3.773674211E-3	-1.658200192E-1	1.658791254E-1
2.937994750E0	-6.473150952E-3	2.110853987E-3	-1.613276035E-1	1.614712142E-1
2.948034750E0	-9.574048184E-3	3.719898099E-3	-1.590799338E-1	1.594111833E-1
2.958074750E0	2.229991006E-3	3.827368096E-4	-1.638682187E-1	1.638838382E-1
2.968062125E0	2.052071197E-3	3.295253199E-3	-1.563826132E-1	1.564307879E-1
2.978102125E0	3.676272389E-3	5.491248127E-3	-1.734477121E-1	1.735735510E-1
2.988143125E0	2.333623767E-3	-2.507806839E-3	-1.691073239E-1	1.691420169E-1
2.998183125E0	5.310724480E-3	1.582046421E-3	-1.595278305E-1	1.596240438E-1
3.008223125E0	2.724875584E-3	-6.200323524E-3	-1.637196994E-1	1.638597233E-1
3.018233125E0	6.165523455E-3	-8.209865363E-3	-1.565328866E-1	1.568692454E-1
3.028273125E0	-5.759726688E-3	-7.365116291E-3	-1.616211337E-1	1.618913532E-1
3.038314125E0	-2.621178869E-3	-7.117441026E-3	-1.628168893E-1	1.629934599E-1
3.048354125E0	5.153863784E-4	-5.196493641E-3	-1.694020236E-1	1.694824910E-1
3.058394125E0	4.675123002E-4	-2.722554971E-3	-1.699996090E-1	1.700220513E-1
3.068404125E0	1.797991404E-3	-8.405262865E-3	-1.620661068E-1	1.622938822E-1
3.078444125E0	-1.928969035E-3	-9.837730201E-3	-1.617661446E-1	1.620764863E-1
3.088484125E0	-6.914862413E-3	4.142048797E-3	-1.637120980E-1	1.639104113E-1
3.098525125E0	-1.235702134E-2	1.036514905E-2	-1.661071175E-1	1.668883063E-1
3.108565125E0	-6.334562805E-3	9.033381734E-3	-1.626648617E-1	1.630386025E-1
3.118575125E0	-9.049890982E-3	2.306087036E-3	-1.580256808E-1	1.583014035E-1
3.128615125E0	-1.063500719E-2	3.539666813E-3	-1.539846700E-1	1.543920698E-1
3.138655125E0	-1.206735576E-2	-8.854977703E-3	-1.611708981E-1	1.618644189E-1
3.148696125E0	-3.165143514E-3	6.291165501E-3	-1.638647103E-1	1.640159754E-1
3.158705125E0	-8.885675585E-3	-4.565670434E-4	-1.484461874E-1	1.487125893E-1
3.168746125E0	-3.550694296E-3	3.869212233E-4	-1.551827645E-1	1.552238627E-1
3.178786125E0	-3.650343642E-3	-4.261478176E-3	-1.571293026E-1	1.572294595E-1
3.188826125E0	-3.413677588E-3	9.360935446E-4	-1.587747091E-1	1.588141609E-1
3.198867125E0	1.243014808E-2	-3.852739530E-3	-1.614691061E-1	1.619926677E-1
3.208876125E0	6.533139730E-3	-7.757903002E-3	-1.517387545E-1	1.520773375E-1
3.218917125E0	-1.496649664E-3	-3.913979977E-5	-1.572784066E-1	1.572855323E-1
3.228957125E0	8.374016806E-3	3.414445035E-3	-1.640143991E-1	1.642635251E-1
3.238997125E0	7.057360886E-3	-1.400380740E-3	-1.572784066E-1	1.574428931E-1
3.249037125E0	8.108717669E-3	5.678614844E-3	-1.637156063E-1	1.640146266E-1
3.259047125E0	1.011010995E-3	-9.260253701E-3	-1.700037020E-1	1.702587242E-1
3.269088125E0	-7.459110282E-3	-6.659476133E-3	-1.641640878E-1	1.644683394E-1
3.279128125E0	-8.440072071E-3	2.742892317E-3	-1.475486398E-1	1.478152880E-1
3.289168125E0	-1.462097188E-2	8.003860647E-3	-1.511423385E-1	1.520586765E-1
3.299208125E0	-1.285893171E-2	4.636458289E-3	-1.622198886E-1	1.627947822E-1
3.309218125E0	-8.813626925E-3	2.587740105E-3	-1.709006649E-1	1.711473450E-1
3.319258125E0	-1.118940546E-2	6.646054946E-3	-1.644628805E-1	1.649770042E-1
3.329299125E0	-6.302594980E-3	2.320449259E-3	-1.538338119E-1	1.539803522E-1
3.339339125E0	-1.493377964E-2	1.363716871E-3	-1.572754830E-1	1.579887814E-1
3.349379125E0	-2.288125120E-3	-4.293007459E-3	-1.638612020E-1	1.639333979E-1
3.359389125E0	4.550211858E-3	-9.851187933E-4	-1.617655599E-1	1.618325408E-1
3.369429125E0	6.129864575E-3	-2.551606139E-3	-1.589214742E-1	1.590601173E-1
3.379470125E0	6.023098072E-3	-9.422157621E-3	-1.634127206E-1	1.637949084E-1
3.389510125E0	8.277793564E-3	-9.012066806E-3	-1.622146261E-1	1.626755179E-1
3.399550125E0	-2.335414477E-3	8.108260855E-4	-1.734406954E-1	1.734583132E-1
3.409560125E0	-4.346098350E-3	-5.072605759E-3	-1.670046651E-1	1.671382005E-1
3.419600125E0	-3.501751274E-3	-6.431279406E-3	-1.629619002E-1	1.631263453E-1
3.429641125E0	-5.193250263E-3	-1.800485607E-3	-1.580221725E-1	1.581177365E-1
3.439681125E0	-3.470614851E-3	-8.847367186E-3	-1.595196444E-1	1.598024969E-1
3.449691125E0	1.704627816E-3	4.967757873E-4	-1.607165694E-1	1.607263769E-1
3.459731125E0	-6.015240876E-3	3.246118315E-4	-1.538314730E-1	1.539493767E-1
3.469771125E0	-1.117091364E-2	-5.849874308E-3	-1.587700313E-1	1.592700009E-1
3.479811125E0	-7.029979471E-3	-4.903219230E-3	-1.596669942E-1	1.598968768E-1
3.489852125E0	2.365381457E-5	-1.586413560E-3	-1.583186263E-1	1.583265761E-1
3.499861125E0	-3.576239320E-3	6.864996627E-5	-1.632583541E-1	1.632975333E-1
3.509902125E0	-1.973371329E-3	6.530426256E-4	-1.652025533E-1	1.652156296E-1
3.519942125E0	-8.621180439E-3	-3.140420755E-3	-1.631057417E-1	1.633636128E-1
3.529982125E0	-5.281351358E-3	-7.686000522E-3	-1.634051192E-1	1.636710122E-1
3.540023125E0	4.192919573E-3	-7.097414313E-3	-1.616088545E-1	1.618189597E-1
3.550032125E0	1.968775783E-4	-5.400296515E-3	-1.596640706E-1	1.597554926E-1
3.560073125E0	7.001218479E-3	-1.047979102E-2	-1.562218148E-1	1.567293798E-1
3.570113125E0	6.711973166E-3	-1.413517789E-2	-1.554727864E-1	1.562582515E-1
3.580153125E0	-4.651880320E-3	-7.659039376E-3	-1.455921614E-1	1.458676741E-1
3.590193125E0	-1.169589311E-3	-4.661975903E-3	-1.520281917E-1	1.521041519E-1
3.600203125E0	-2.327685189E-3	-7.157594953E-3	-1.737336409E-1	1.738965994E-1
3.610244125E0	-2.503339201E-6	-4.896321343E-3	-1.593629390E-1	1.594381394E-1
3.620284125E0	-4.574066671E-3	-3.146030428E-3	-1.530765975E-1	1.531772316E-1
3.630324125E0	-5.366474027E-3	-6.188638229E-4	-1.497828609E-1	1.498802437E-1
3.640364125E0	-2.721814932E-3	5.867863633E-4	-1.490355867E-1	1.490615937E-1
3.650374125E0	-9.126124056E-3	6.403724402E-3	-1.622081941E-1	1.625908733E-1
3.660414125E0	-8.803037982E-3	-1.869537570E-3	-1.596629012E-1	1.599163239E-1
3.670455125E0	-6.969963284E-3	6.576948166E-3	-1.693926680E-1	1.696635276E-1
3.680495125E0	-4.601411540E-3	3.336868929E-3	-1.595132124E-1	1.596144499E-1
3.690535125E0	5.878918525E-4	2.928925138E-3	-1.590653157E-1	1.590933653E-1
3.700545125E0	-6.090377597E-3	-6.338153360E-3	-1.656510347E-1	1.658840866E-1
3.710585125E0	-2.027339302E-4	3.779868605E-3	-1.604119295E-1	1.604565849E-1
3.720626125E0	3.640019652E-3	-1.206746539E-3	-1.511306441E-1	1.511792895E-1
3.730666125E0	-1.014089920E-3	-4.048374575E-3	-1.496325874E-1	1.496907777E-1
3.740676125E0	3.556815600E-3	-1.232096046E-2	-1.577163631E-1	1.582368737E-1
3.750716125E0	-1.281252857E-3	-1.578366330E-2	-1.529269087E-1	1.537446098E-1
3.760756125E0	-4.956520256E-3	-4.759551315E-3	-1.613106465E-1	1.614569451E-1
3.770797125E0	-8.088069689E-4	-4.739341876E-3	-1.662503743E-1	1.663198800E-1
3.780837125E0	-1.118837306E-3	-6.350405104E-3	-1.613106465E-1	1.614394751E-1
3.790847125E0	-1.087928376E-2	-1.264064784E-2	-1.616100240E-1	1.624682881E-1
3.800887125E0	-1.219609500E-2	-1.443303871E-2	-1.514311910E-1	1.526055796E-1
3.810927125E0	-1.506393501E-2	-1.598524606E-2	-1.586174190E-1	1.601309959E-1
3.820967125E0	-4.829297634E-3	-1.236507953E-2	-1.613135701E-1	1.618588435E-1
3.831008125E0	-1.336292516E-2	-1.278310977E-3	-1.667023641E-1	1.672419805E-1
3.841017125E0	-8.068134338E-3	-1.293267058E-3	-1.535303414E-1	1.537476278E-1
3.851058125E0	-4.321202002E-3	-5.057256818E-3	-1.578713143E-1	1.580113936E-1
3.861098125E0	-6.432138216E-3	3.575398782E-3	-1.562253231E-1	1.563985532E-1
3.871138125E0	-2.571678534E-3	8.852218548E-3	-1.479936129E-1	1.482804261E-1
3.881179125E0	-7.162418906E-3	6.326093478E-3	-1.518861043E-1	1.521864265E-1
3.891188125E0	-6.269055717E-3	-6.355274739E-3	-1.683524483E-1	1.685889600E-1
3.901229125E0	3.813819000E-3	-4.907613778E-3	-1.641599947E-1	1.642776119E-1
3.911269125E0	5.126564596E-3	1.836117078E-3	-1.529327559E-1	1.530296730E-1
3.921309125E0	1.202187538E-3	5.266057234E-4	-1.622152108E-1	1.622205202E-1
3.931349125E0	-2.203578036E-3	5.985712437E-3	-1.542822933E-1	1.544140879E-1
3.941359125E0	-1.898801057E-3	5.957216397E-4	-1.490431881E-1	1.490564733E-1
3.951400125E0	-7.279280992E-3	-5.711094299E-3	-1.622157955E-1	1.624794413E-1
3.961440125E0	-5.058992710E-3	-3.278296273E-3	-1.695505428E-1	1.696576765E-1
3.971475500E0	5.274142837E-3	-7.108670203E-3	-1.623660690E-1	1.626071650E-1
3.981485500E0	4.152144380E-3	-8.498927951E-3	-1.559300387E-1	1.562166734E-1
3.991525500E0	-4.566154657E-3	-7.877368927E-3	-1.596722567E-1	1.599316487E-1
4.001565500E0	-7.381744310E-3	-8.633002779E-3	-1.685038912E-1	1.688862938E-1
4.011606500E0	-6.699630059E-4	-2.219301565E-3	-1.695528817E-1	1.695687290E-1
4.021646500E0	-8.356338115E-3	-5.845963983E-3	-1.667087960E-1	1.670204369E-1
4.031656500E0	-1.584842121E-3	-1.015469497E-2	-1.719490707E-1	1.722559505E-1
4.041696500E0	9.643246327E-4	-8.375679608E-4	-1.728472030E-1	1.728519223E-1
4.051736500E0	-2.158152480E-3	9.340232648E-3	-1.476994979E-1	1.480102674E-1
4.061777500E0	-5.876433458E-3	8.344735047E-3	-1.596757650E-1	1.600016157E-1
4.071817500E0	-1.070652595E-3	1.206908251E-2	-1.595272458E-1	1.599867219E-1
4.081827500E0	9.455221798E-3	1.088166833E-3	-1.610253024E-1	1.613063339E-1
4.091867500E0	1.329377269E-2	4.350556852E-3	-1.670140207E-1	1.675987316E-1
4.101907500E0	9.345102282E-3	-8.496917970E-4	-1.649177939E-1	1.651845382E-1
4.111948500E0	1.168977180E-3	-9.612493627E-3	-1.506973654E-1	1.510081537E-1
4.121988500E0	6.145679466E-3	-8.224857990E-3	-1.523445261E-1	1.526901185E-1
4.131998500E0	1.166353242E-2	-5.562255252E-4	-1.496507138E-1	1.501055746E-1
4.142038500E0	6.833567843E-3	-5.376597019E-3	-1.530941391E-1	1.533408650E-1
4.152078500E0	3.115277728E-3	-4.195459457E-3	-1.602791977E-1	1.603643603E-1
4.162118500E0	-4.141591983E-3	-6.863233326E-3	-1.634209067E-1	1.636173875E-1
4.172159500E0	-1.014234273E-2	-6.546085831E-3	-1.568334335E-1	1.572973116E-1
4.182168500E0	-1.794045447E-2	-6.272673681E-3	-1.529426962E-1	1.541190276E-1
4.192209500E0	-1.599312153E-2	5.684169699E-3	-1.547401303E-1	1.556682294E-1
4.202249500E0	-9.549097018E-3	5.555092413E-3	-1.655177182E-1	1.658859830E-1
4.212289500E0	-1.325694437E-2	3.018953986E-3	-1.741990793E-1	1.747288753E-1
4.222330500E0	-7.280934658E-3	1.567026386E-3	-1.721022677E-1	1.722633395E-1
4.232339500E0	-9.875426469E-3	1.391874868E-3	-1.616234726E-1	1.619308749E-1
4.242380500E0	-5.108145867E-3	2.802771460E-3	-1.542863864E-1	1.543963656E-1
4.252420500E0	2.063290542E-3	1.410410542E-2	-1.494957626E-1	1.501737860E-1
4.262460500E0	6.764534153E-3	-2.412268817E-3	-1.527889144E-1	1.529576096E-1
4.272470500E0	-2.896162458E-3	2.847255981E-3	-1.565305477E-1	1.565832271E-1
4.282510500E0	9.804474162E-3	-5.296088168E-3	-1.526380563E-1	1.530442828E-1
4.292551500E0	7.013570722E-3	-3.833069131E-3	-1.550336605E-1	1.552395520E-1
4.302591500E0	5.057768449E-3	-9.726486923E-3	-1.599739730E-1	1.603491740E-1
4.312631500E0	4.930728553E-3	-1.122386749E-2	-1.503938949E-1	1.508927132E-1
4.322641500E0	3.304526517E-3	-9.599730251E-3	-1.629677474E-1	1.632836839E-1
4.332681500E0	-9.362854064E-4	-3.487553503E-3	-1.717987972E-1	1.718367434E-1
4.342721500E0	4.257978983E-3	-3.482035194E-3	-1.682062680E-1	1.682961780E-1
4.352762500E0	-2.179001458E-3	-3.000973798E-3	-1.622163802E-1	1.622587684E-1
4.362802500E0	-9.767846838E-3	-2.034584368E-3	-1.584747469E-1	1.587885254E-1
4.372812500E0	-1.785529526E-3	-4.892429290E-3	-1.433567709E-1	1.434513427E-1
4.382852500E0	-5.286083948E-3	5.117848590E-3	-1.554821420E-1	1.556561323E-1
4.392892500E0	-7.152926316E-3	6.283025080E-3	-1.616193795E-1	1.618995509E-1
4.402933500E0	-8.567267284E-3	3.263449827E-3	-1.575783688E-1	1.578448304E-1
4.412973500E0	-1.870122291E-3	8.223478412E-3	-1.587758785E-1	1.589996936E-1
4.422983500E0	2.857817514E-3	1.014559524E-2	-1.568305099E-1	1.571843156E-1
4.433023500E0	-4.728551935E-3	-7.824670896E-4	-1.560814816E-1	1.561550523E-1
4.443063500E0	-1.088678464E-3	-5.287956884E-3	-1.547331136E-1	1.548272720E-1
4.453104500E0	-4.552605562E-5	5.083861649E-3	-1.605698043E-1	1.606502716E-1
4.463144500E0	6.921833390E-3	-2.992796833E-3	-1.484450179E-1	1.486364422E-1
4.473154500E0	-1.251559965E-3	-5.989001496E-3	-1.560797274E-1	1.561996026E-1
4.483194500E0	7.774969563E-4	-2.385737076E-3	-1.545834249E-1	1.546037888E-1
4.493234500E0	-5.081595853E-4	-5.015184274E-3	-1.499430746E-1	1.500277838E-1
4.503274500E0	-5.057055820E-3	-4.219597494E-3	-1.551815951E-1	1.553213001E-1
4.513284500E0	-4.414172731E-3	5.236291252E-3	-1.619170028E-1	1.620617767E-1
4.523324500E0	-4.814633913E-4	-2.846561624E-3	-1.686529952E-1	1.686777031E-1
4.533365500E0	-2.805621978E-3	-1.872305861E-3	-1.590746713E-1	1.591104273E-1
4.543405500E0	-3.351916373E-4	-4.921592278E-3	-1.475486398E-1	1.476310791E-1
4.553445500E0	2.533397544E-4	8.039921522E-5	-1.500927633E-1	1.500929986E-1
4.563455500E0	-1.865481064E-3	3.110791817E-3	-1.550324911E-1	1.550749185E-1
4.573495500E0	-8.142001117E-3	-1.049307517E-2	-1.524883676E-1	1.530656691E-1
4.583536500E0	-9.119756073E-3	-1.520330887E-3	-1.551815951E-1	1.554567747E-1
4.593576500E0	-9.712115563E-3	-1.389380665E-3	-1.593728793E-1	1.596745760E-1
4.603616500E0	2.269359212E-4	-1.067071175E-3	-1.601219076E-1	1.601256239E-1
4.613626500E0	-6.108896825E-3	5.849399222E-3	-1.560791427E-1	1.563081344E-1
4.623666500E0	1.990401344E-3	6.264441898E-3	-1.586232662E-1	1.587593950E-1
4.633707500E0	-1.787183192E-3	-1.947058858E-3	-1.596710873E-1	1.596929591E-1
4.643747500E0	-5.249474896E-3	1.524122441E-3	-1.572748983E-1	1.573698623E-1
4.653787500E0	1.516959602E-3	-2.713884646E-3	-1.566761434E-1	1.567069885E-1
4.663797500E0	4.685711944E-3	-5.385121163E-3	-1.622146261E-1	1.623716119E-1
4.673837500E0	8.398237070E-3	-1.936949571E-2	-1.503898019E-1	1.518644140E-1
4.683877500E0	-8.403453883E-4	-3.106899764E-3	-1.551810104E-1	1.552143839E-1
4.693918500E0	4.846802736E-3	-9.662359413E-3	-1.617678988E-1	1.621286704E-1
4.703958500E0	3.995009596E-3	-1.273435861E-2	-1.670081735E-1	1.675406040E-1
4.713968500E0	-5.430610674E-3	1.769632408E-3	-1.680559945E-1	1.681530268E-1
4.724008500E0	5.294105597E-4	-5.775706032E-3	-1.583250582E-1	1.584312568E-1
4.734048500E0	-3.353067543E-3	-7.147937911E-3	-1.541320199E-1	1.543341039E-1
4.744089500E0	-2.357990211E-3	-7.183222203E-3	-1.458973861E-1	1.460931417E-1
4.754129500E0	-9.206057321E-3	4.811500171E-3	-1.577227950E-1	1.580644871E-1
4.764139500E0	-2.270035297E-2	1.039137016E-2	-1.635606551E-1	1.654550528E-1
4.774179500E0	-1.357497809E-2	-2.636710536E-3	-1.634121358E-1	1.639962146E-1
4.784219500E0	-1.214669516E-2	3.731811801E-3	-1.535326803E-1	1.540576273E-1
4.794260500E0	-1.278438885E-2	7.967744954E-4	-1.692499959E-1	1.697340171E-1
4.804269500E0	-2.576657804E-3	9.403053671E-4	-1.788306588E-1	1.788516924E-1
4.814310500E0	3.202794101E-3	1.613000119E-3	-1.604189461E-1	1.604590226E-1
4.824350500E0	7.348177638E-3	9.186249878E-4	-1.542817086E-1	1.544593318E-1
4.834390500E0	8.420237219E-3	-7.962327143E-3	-1.532338876E-1	1.536714786E-1
4.844430500E0	2.213627938E-3	-5.350357639E-3	-1.665550143E-1	1.666556307E-1
4.854440500E0	7.738022469E-3	-2.619068390E-3	-1.693973458E-1	1.695942135E-1
4.864480500E0	-2.908807062E-4	-6.558757843E-3	-1.653545809E-1	1.654848613E-1
4.874521500E0	3.971456280E-3	1.319268895E-3	-1.643067598E-1	1.643600446E-1
4.884561500E0	2.724683722E-3	-1.931079514E-3	-1.670023263E-1	1.670357146E-1
4.894601500E0	-3.603858277E-3	-4.964267816E-3	-1.643085140E-1	1.644229896E-1
4.904611500E0	8.478645422E-4	-1.458907714E-3	-1.589191353E-1	1.589280934E-1
4.914651500E0	-6.512583112E-3	-1.177473916E-3	-1.514358687E-1	1.515804160E-1
4.924692500E0	-1.334880047E-2	2.967507625E-3	-1.545793319E-1	1.551830094E-1
4.934732500E0	-1.265384062E-2	2.264900710E-3	-1.493402267E-1	1.498924706E-1
4.944772500E0	-1.088810940E-2	1.443591664E-2	-1.562259078E-1	1.572688173E-1
4.954782500E0	-1.649939904E-2	7.344450038E-3	-1.643085140E-1	1.652980910E-1
4.964822500E0	-5.760603771E-3	1.360425071E-2	-1.662550521E-1	1.669101631E-1
4.974823125E0	1.575961662E-3	7.947234018E-3	-1.586203426E-1	1.588271239E-1
4.984863125E0	9.982841648E-4	2.942227554E-3	-1.649066842E-1	1.649359505E-1
4.994903125E0	-4.620661670E-3	-3.709692881E-4	-1.550260592E-1	1.550953486E-1
5.004913125E0	-4.351607524E-4	4.440731881E-3	-1.482900667E-1	1.483571817E-1
5.014953125E0	1.478687748E-3	2.289760513E-3	-1.533800679E-1	1.534042853E-1
5.024993125E0	-1.212005379E-2	-4.177104682E-5	-1.533794832E-1	1.538576073E-1
5.035034125E0	-4.250532920E-3	-1.538530346E-3	-1.565223616E-1	1.565876234E-1
5.045074125E0	-7.183706425E-3	-1.455152705E-2	-1.517329073E-1	1.525982560E-1
5.055084125E0	-1.103698500E-3	-8.385775192E-3	-1.571205318E-1	1.573480247E-1
5.065124125E0	4.660495827E-3	-5.714630038E-3	-1.625081563E-1	1.626753764E-1
5.075164125E0	-6.616380326E-3	-6.397045786E-3	-1.732874984E-1	1.735317140E-1
5.085205125E0	-7.375248419E-3	-2.394343447E-4	-1.672999495E-1	1.674626070E-1
5.095214125E0	-5.980733167E-3	-4.152911827E-3	-1.469422835E-1	1.471225697E-1
5.105255125E0	-1.861543329E-3	-5.383915175E-4	-1.506850863E-1	1.506975462E-1
5.115295125E0	-8.917798726E-3	-2.284507155E-3	-1.497875386E-1	1.500701597E-1
5.125335125E0	-1.294005269E-2	3.685728433E-3	-1.500880855E-1	1.506899565E-1
5.135376125E0	-8.956536530E-3	1.784967645E-2	-1.692482418E-1	1.704224100E-1
5.145385125E0	-4.576341603E-3	6.083963932E-3	-1.524825203E-1	1.526724485E-1
5.155426125E0	6.936716381E-4	-3.369777789E-3	-1.568234932E-1	1.568612273E-1
5.165466125E0	-3.470422989E-3	3.383034524E-3	-1.599663717E-1	1.600397726E-1
5.175506125E0	-3.741477979E-3	-2.455949346E-3	-1.479901046E-1	1.480577637E-1
5.185546125E0	-5.895884586E-3	-1.143924602E-2	-1.611627120E-1	1.616757172E-1
5.195556125E0	-2.583098877E-3	-1.334165591E-2	-1.641553169E-1	1.647168488E-1
5.205596125E0	-1.081158397E-2	-2.079730354E-2	-1.646049678E-1	1.662654914E-1
5.215637125E0	-3.104158882E-3	-1.942741055E-2	-1.711906868E-1	1.723174725E-1
5.225677125E0	-5.178230228E-3	-1.174315506E-2	-1.560727108E-1	1.565995109E-1
5.235717125E0	-4.703253591E-3	-6.027255077E-3	-1.520328695E-1	1.522249710E-1
5.245727125E0	-3.947309107E-3	-1.352902262E-2	-1.641588253E-1	1.647626645E-1
5.255767125E0	7.242781576E-4	-1.625721468E-2	-1.668543917E-1	1.676460845E-1
5.265808125E0	-9.728040090E-3	-7.723468384E-3	-1.562270772E-1	1.567200893E-1
5.275848125E0	-1.009777598E-2	-3.664203370E-3	-1.521848971E-1	1.525635420E-1
5.285888125E0	-6.890121382E-4	-4.614933226E-3	-1.470948958E-1	1.471688851E-1
5.295898125E0	1.112094736E-3	2.856602389E-3	-1.491917074E-1	1.492231969E-1
5.305938125E0	-1.701530619E-2	2.657285426E-4	-1.529345101E-1	1.538783794E-1
5.315979125E0	-1.201791937E-2	-9.725838248E-4	-1.610188705E-1	1.614696657E-1
5.326019125E0	-3.355972879E-3	9.241862381E-3	-1.614679366E-1	1.617670212E-1
5.336029125E0	-4.795639599E-3	-6.529850671E-3	-1.554803878E-1	1.556913231E-1
5.346069125E0	-9.362698747E-3	1.091592936E-3	-1.620672762E-1	1.623411646E-1
5.356109125E0	-1.062390662E-2	7.223979123E-3	-1.601195687E-1	1.606341481E-1
5.366149125E0	-1.177180641E-2	2.203011587E-3	-1.536817843E-1	1.541477197E-1
5.376190125E0	9.340561554E-4	-7.801848482E-3	-1.608645040E-1	1.610562943E-1
5.386200125E0	9.618212935E-4	-5.355209000E-3	-1.734377718E-1	1.735230937E-1
5.396240125E0	3.731601667E-3	-6.365543911E-3	-1.575713521E-1	1.577440205E-1
5.406280125E0	4.524429291E-3	-7.042742847E-3	-1.607159847E-1	1.609338324E-1
5.416320125E0	2.577617113E-4	-8.064013878E-3	-1.517358309E-1	1.519501798E-1
5.426361125E0	7.975995010E-3	-5.341952266E-3	-1.521854818E-1	1.524879465E-1
5.436370125E0	-5.862866091E-3	-3.054804727E-3	-1.607189083E-1	1.608548181E-1
5.446411125E0	-1.250419758E-2	-1.045341460E-2	-1.695511276E-1	1.703326560E-1
5.456451125E0	-6.142399544E-3	-2.299289647E-3	-1.598201913E-1	1.599547103E-1
5.466491125E0	-6.110303812E-3	-8.622203702E-3	-1.593682015E-1	1.597181951E-1
5.476532125E0	-1.093606571E-2	-8.155257851E-3	-1.595167208E-1	1.600990005E-1
5.486541125E0	-6.511916164E-3	-3.112217076E-3	-1.659533358E-1	1.661102062E-1
5.496582125E0	5.167275835E-3	6.069656527E-3	-1.643073446E-1	1.645005925E-1
5.506622125E0	-5.539944470E-3	-1.046085153E-3	-1.553271908E-1	1.554294743E-1
5.516662125E0	-5.822310168E-3	9.801669326E-4	-1.502401131E-1	1.503560827E-1
5.526702125E0	-1.277809395E-2	4.416822251E-3	-1.529333407E-1	1.535297844E-1
5.536712125E0	-7.426292785E-3	1.831558077E-3	-1.649066842E-1	1.650839753E-1
5.546752125E0	-5.344163245E-3	6.741894465E-3	-1.571228707E-1	1.573582210E-1
5.556793125E0	-5.386582967E-3	1.234132522E-2	-1.532286251E-1	1.538191637E-1
5.566833125E0	1.468135351E-3	1.759993639E-3	-1.535268331E-1	1.535439399E-1
5.576873125E0	4.029106172E-3	-4.589698836E-4	-1.602616560E-1	1.603129525E-1
5.586883125E0	4.045021562E-3	-6.460771300E-3	-1.589121187E-1	1.590948309E-1
5.596923125E0	4.378961530E-3	-1.399743028E-2	-1.503781074E-1	1.510916230E-1
5.606964125E0	-1.344229197E-3	-6.061497834E-3	-1.485818428E-1	1.487115083E-1
5.617004125E0	-4.021788016E-3	-2.409628434E-3	-1.708860469E-1	1.709503498E-1
5.627014125E0	3.343858179E-3	-1.660250190E-2	-1.631028181E-1	1.639797358E-1
5.637054125E0	-2.071732460E-3	-9.222301617E-3	-1.560674483E-1	1.563534180E-1
5.647094125E0	-1.592703885E-2	-9.108235231E-3	-1.596605623E-1	1.607113116E-1
5.657135125E0	-2.626602162E-2	1.871383097E-4	-1.476837105E-1	1.500013908E-1
5.667175125E0	-2.344544356E-2	1.740848576E-2	-1.577140242E-1	1.603946933E-1
5.677185125E0	-1.830675513E-2	1.084762657E-2	-1.686407161E-1	1.699779380E-1
5.687225125E0	-1.721409325E-2	4.447602360E-3	-1.613053840E-1	1.622822636E-1
5.697265125E0	-1.174981540E-2	9.919015635E-3	-1.596576387E-1	1.603964046E-1
5.707305125E0	-1.657057062E-2	1.250355804E-2	-1.428913325E-1	1.443913283E-1
5.717346125E0	-6.247000750E-3	-3.117808476E-3	-1.554646003E-1	1.556212958E-1
5.727356125E0	-2.527166605E-3	4.023706634E-4	-1.503757685E-1	1.503975407E-1
5.737396125E0	-2.391145751E-4	5.250288025E-3	-1.626514131E-1	1.627363047E-1
5.747436125E0	-4.211091623E-4	1.826560535E-3	-1.628011018E-1	1.628118927E-1
5.757476125E0	1.514629852E-3	5.122142639E-3	-1.611545259E-1	1.612430205E-1
5.767517125E0	-1.342356261E-3	-8.174014622E-3	-1.557645625E-1	1.559846639E-1
5.777526125E0	1.412139125E-3	-6.673746994E-3	-1.581584126E-1	1.583054532E-1
5.787567125E0	-3.010365888E-3	-3.351313379E-3	-1.627987629E-1	1.628610783E-1
5.797607125E0	-7.195866806E-3	-1.443017906E-2	-1.605546016E-1	1.613622962E-1
5.807647125E0	-2.736222837E-4	-9.757522848E-3	-1.722297370E-1	1.725061345E-1
5.817688125E0	-4.269536370E-3	-9.758610064E-3	-1.629478669E-1	1.632956421E-1
5.827697125E0	-5.458293585E-3	-2.501603309E-3	-1.433398139E-1	1.434655124E-1
5.837738125E0	-1.096180259E-2	4.803277524E-3	-1.458868611E-1	1.463769409E-1
5.847778125E0	-1.614237171E-2	-2.293122662E-3	-1.530736738E-1	1.539395472E-1
5.857818125E0	-1.376592622E-2	-1.059917472E-3	-1.622046858E-1	1.627912290E-1
5.867828125E0	-1.634139631E-2	6.773798335E-3	-1.653481489E-1	1.662917194E-1
5.877868125E0	-1.657823595E-2	9.655032121E-3	-1.586133260E-1	1.597693485E-1
5.887908125E0	-1.004063772E-2	1.194214311E-2	-1.622058553E-1	1.629544988E-1
5.897949125E0	-1.226474497E-2	-1.675163331E-3	-1.533748055E-1	1.538735230E-1
5.907989125E0	-1.635105335E-2	1.209551375E-3	-1.535256636E-1	1.543986702E-1
5.917999125E0	-6.173599921E-3	3.178144433E-4	-1.587665230E-1	1.588868250E-1
5.928039125E0	-7.197292065E-3	1.333110351E-3	-1.556253988E-1	1.557974420E-1
5.938079125E0	2.019345062E-3	-3.645053739E-3	-1.652072310E-1	1.652597754E-1
5.948120125E0	5.547673758E-3	-4.592284402E-3	-1.545810860E-1	1.547487574E-1
5.958160125E0	2.289413335E-3	-1.452734333E-2	-1.589220589E-1	1.596010838E-1
5.968154500E0	1.202973258E-4	-1.065532627E-2	-1.542834628E-1	1.546510179E-1
5.978194500E0	-5.458485447E-3	-8.798140939E-3	-1.557821041E-1	1.561258029E-1
5.988234500E0	4.832285196E-3	-9.012605846E-3	-1.619210958E-1	1.622437035E-1
5.998275500E0	-3.614036087E-4	-1.710831346E-3	-1.647669357E-1	1.647762139E-1
6.008315500E0	-6.346430825E-3	-9.779468179E-3	-1.671642941E-1	1.675703327E-1
6.018325500E0	-3.322945246E-3	2.165498044E-3	-1.559405637E-1	1.559909957E-1
6.028365500E0	-7.593340427E-3	3.691584785E-3	-1.575877243E-1	1.578137430E-1
6.038405500E0	-1.918189145E-2	-6.535268482E-3	-1.679180002E-1	1.691363636E-1
6.048445500E0	-1.423690117E-2	6.353575392E-3	-1.631279612E-1	1.638712574E-1
6.058486500E0	-1.147876041E-2	5.276235044E-3	-1.635776120E-1	1.640647304E-1
6.068496500E0	-1.155978089E-2	-2.260186393E-3	-1.692646140E-1	1.696739418E-1
6.078536500E0	-1.492646148E-2	-1.461968366E-3	-1.649236411E-1	1.656041787E-1
6.088576500E0	-9.407585263E-3	-4.421244208E-3	-1.768975693E-1	1.772027090E-1
6.098616500E0	-2.173354327E-2	-4.426132115E-3	-1.715093601E-1	1.729375556E-1
6.108626500E0	-2.500232868E-3	-1.288621263E-2	-1.634279233E-1	1.639542368E-1
6.118666500E0	7.892736141E-3	-8.393897340E-3	-1.760017759E-1	1.763785075E-1
6.128707500E0	3.279648442E-4	-3.833690397E-3	-1.655235654E-1	1.655682803E-1
6.138747500E0	-1.646453502E-2	4.371305332E-3	-1.599850827E-1	1.608894525E-1
6.148787500E0	5.019469187E-4	3.632948175E-4	-1.421703708E-1	1.421717211E-1
6.158797500E0	3.055873672E-3	4.474992910E-3	-1.581853098E-1	1.582780975E-1
6.168837500E0	-2.598292502E-3	8.421534570E-3	-1.776430893E-1	1.778615769E-1
6.178878500E0	1.199985696E-3	3.392591067E-3	-1.744978720E-1	1.745349735E-1
6.188918500E0	-5.688792653E-4	-7.547567692E-4	-1.698569369E-1	1.698595664E-1
6.198958500E0	-1.527984344E-2	2.171052899E-4	-1.589296603E-1	1.596626371E-1
6.208968500E0	-4.569498533E-3	-5.224852636E-3	-1.514469784E-1	1.516059586E-1
6.219008500E0	-1.367266313E-2	-6.350907600E-3	-1.538443369E-1	1.545812270E-1
6.229048500E0	-2.096525568E-2	-5.582537781E-4	-1.548915732E-1	1.563050000E-1
6.239089500E0	-1.580970168E-2	-6.220907550E-3	-1.590822726E-1	1.599869239E-1
6.249129500E0	-5.622920115E-3	-7.569851065E-3	-1.511487705E-1	1.514426317E-1
6.259139500E0	-1.212127805E-2	-1.243568466E-2	-1.646201706E-1	1.655335984E-1
6.269179500E0	-1.692681223E-2	-1.627855701E-3	-1.568375266E-1	1.577567007E-1
6.279219500E0	-1.587677107E-2	9.807973355E-4	-1.556406015E-1	1.564513684E-1
6.289260500E0	-1.875340931E-2	8.746018494E-3	-1.517481101E-1	1.531524473E-1
6.299300500E0	-5.921283429E-3	2.123050913E-3	-1.565375644E-1	1.566639014E-1
6.309310500E0	-3.383893333E-4	4.230853384E-3	-1.623748398E-1	1.624303027E-1
6.319350500E0	4.655297287E-4	6.538283452E-4	-1.601289243E-1	1.601309358E-1
6.329390500E0	-3.500472195E-4	1.667936537E-3	-1.551891965E-1	1.551985543E-1
6.339431500E0	-4.110336788E-3	-4.356897427E-3	-1.511476010E-1	1.512662379E-1
6.349471500E0	1.147414659E-2	-1.401933907E-3	-1.622239816E-1	1.626353027E-1
6.359481500E0	9.291426670E-3	1.967231752E-3	-1.545898569E-1	1.548813238E-1
6.369521500E0	6.291759359E-3	9.120651428E-3	-1.538425827E-1	1.542410865E-1
6.379561500E0	-1.163879139E-3	-2.515682308E-3	-1.575836313E-1	1.576080078E-1
6.389601500E0	-4.652611222E-3	-5.457352549E-3	-1.517457712E-1	1.519151360E-1
6.399611500E0	-1.801403803E-2	-3.750139168E-3	-1.583309054E-1	1.593965016E-1
6.409652500E0	-2.134509629E-2	-7.091119420E-3	-1.598272079E-1	1.614020864E-1
6.419692500E0	-1.970561924E-2	-3.451620536E-3	-1.629712558E-1	1.641945655E-1
6.429732500E0	-1.886221320E-2	-7.490237569E-3	-1.566825753E-1	1.579915066E-1
6.439772500E0	-1.529585020E-2	4.637371916E-3	-1.626695395E-1	1.634528902E-1
6.449782500E0	-1.087788591E-2	-8.931676727E-3	-1.565323019E-1	1.571638151E-1
6.459822500E0	-3.664532276E-3	-1.109600533E-4	-1.578771615E-1	1.579197240E-1
6.469863500E0	-9.540253105E-3	-3.321803212E-3	-1.602710116E-1	1.605890655E-1
6.479903500E0	-9.501497028E-3	-9.051087834E-3	-1.584747469E-1	1.590171250E-1
6.489943500E0	-1.344512422E-3	7.224289756E-3	-1.577268881E-1	1.578979712E-1
6.499953500E0	-5.709285317E-3	2.577936882E-3	-1.553330380E-1	1.554593014E-1
6.509993500E0	1.267283494E-3	1.663596807E-3	-1.563814437E-1	1.563954267E-1
6.520034500E0	1.805254743E-3	6.092561167E-3	-1.635665023E-1	1.636898865E-1
6.530074500E0	-4.625330307E-3	-8.341784030E-4	-1.641664267E-1	1.642336907E-1
6.540114500E0	-3.613926452E-3	-4.246321097E-3	-1.652154171E-1	1.653094848E-1
6.550124500E0	-2.254978716E-3	1.430402538E-3	-1.574316037E-1	1.574542499E-1
6.560164500E0	-4.303075634E-3	-6.469313717E-3	-1.417148727E-1	1.419277056E-1
6.570205500E0	-5.328887394E-3	-2.200161070E-3	-1.524936301E-1	1.526025719E-1
6.580245500E0	-7.221841235E-3	2.677266458E-3	-1.610241330E-1	1.612082322E-1
6.590285500E0	-4.688781733E-3	-4.783186857E-3	-1.659644455E-1	1.660995506E-1
6.600295500E0	-9.624051014E-3	-6.419128161E-3	-1.638670492E-1	1.642748836E-1
6.610335500E0	-7.783822613E-3	-7.798888329E-3	-1.562317550E-1	1.566198322E-1
6.620375500E0	-1.095159737E-2	-8.261759402E-3	-1.536882162E-1	1.542992610E-1
6.630416500E0	-2.014442537E-2	-7.857031580E-3	-1.554833114E-1	1.569795877E-1
6.640425500E0	-1.572299844E-2	-4.909596350E-3	-1.635682565E-1	1.643955332E-1
6.650466500E0	-9.548996519E-3	-2.689636974E-3	-1.635688412E-1	1.638694093E-1
6.660506500E0	-8.594895378E-3	-3.602780197E-3	-1.554844809E-1	1.557635260E-1
6.670546500E0	-1.626978619E-3	-9.544565426E-3	-1.698545980E-1	1.701303332E-1
6.680587500E0	-3.317152848E-3	-8.489846494E-3	-1.700037020E-1	1.702478772E-1
6.690596500E0	-2.431573765E-3	-5.145440139E-3	-1.571310568E-1	1.572340838E-1
6.700637500E0	4.226349201E-3	1.122784177E-3	-1.568316793E-1	1.568926331E-1
6.710677500E0	-1.325719105E-3	-2.483248534E-3	-1.539887631E-1	1.540144903E-1
6.720717500E0	8.035810199E-4	-6.856134441E-4	-1.737482589E-1	1.737514699E-1
6.730757500E0	-3.247443074E-3	6.472940817E-3	-1.580303586E-1	1.581962044E-1
6.740767500E0	-5.093664872E-3	-4.364096811E-3	-1.457564682E-1	1.459107219E-1
6.750808500E0	-4.330475321E-3	-1.746636406E-3	-1.453068173E-1	1.453818245E-1
6.760848500E0	-8.175494699E-3	4.816890573E-3	-1.511435080E-1	1.514410814E-1
6.770888500E0	-2.506637396E-3	4.766979106E-3	-1.584776706E-1	1.585691628E-1
6.780928500E0	1.567601971E-4	1.418863423E-4	-1.601242465E-1	1.601243861E-1
6.790938500E0	-5.864574574E-3	5.012827115E-3	-1.505447531E-1	1.507423111E-1
6.800978500E0	-1.010529513E-2	7.981769135E-3	-1.550342453E-1	1.555681292E-1
6.811019500E0	-4.875846952E-3	5.031090528E-3	-1.515908200E-1	1.517526357E-1
6.821059500E0	-1.128169097E-2	5.469942335E-3	-1.571293026E-1	1.576287238E-1
6.831099500E0	-1.281805602E-2	5.605369331E-3	-1.664105880E-1	1.669976243E-1
6.841109500E0	-1.276471845E-2	-6.513926145E-3	-1.590752560E-1	1.597194614E-1
6.851149500E0	-1.717957640E-2	-1.206359161E-2	-1.683553720E-1	1.696590680E-1
6.861190500E0	-1.954377014E-2	-2.191151789E-2	-1.737418270E-1	1.762052667E-1
6.871230500E0	-9.210844729E-3	-1.392085003E-2	-1.653586739E-1	1.661990396E-1
6.881270500E0	-1.486157566E-2	-2.344545269E-2	-1.563750118E-1	1.588197091E-1
6.891280500E0	-6.300091641E-3	-6.858071331E-3	-1.611638814E-1	1.614327134E-1
6.901320500E0	5.787985185E-3	-6.259809807E-4	-1.557745028E-1	1.558832523E-1
6.911361500E0	5.602098545E-3	-1.014664591E-2	-1.605633724E-1	1.609811619E-1
6.921401500E0	8.214954268E-3	-4.386325367E-4	-1.607136458E-1	1.609240623E-1
6.931411500E0	6.046898067E-3	3.297957536E-3	-1.499366426E-1	1.500947644E-1
6.941451500E0	5.486661717E-3	1.694861138E-3	-1.387105733E-1	1.388293887E-1
6.951491500E0	3.378091799E-3	1.421417926E-2	-1.532309639E-1	1.539259001E-1
6.961531500E0	-5.364180822E-4	1.344139662E-2	-1.598196065E-1	1.603847422E-1
6.971561417E0	-7.303035306E-3	3.104990283E-3	-1.667064571E-1	1.668952310E-1
6.981570417E0	-7.051687259E-3	-4.613361787E-4	-1.565270394E-1	1.566864806E-1
6.991611417E0	-1.416456015E-2	-5.220156591E-3	-1.569772750E-1	1.577014574E-1
7.001651417E0	-1.041083956E-2	-5.226862617E-3	-1.679033822E-1	1.683070154E-1
7.011691417E0	-2.398374371E-2	-4.374566982E-3	-1.542799544E-1	1.561943057E-1
7.021732417E0	-1.551190482E-2	-1.328615304E-3	-1.550272286E-1	1.558070153E-1
7.031741417E0	-1.679422662E-2	-9.658193272E-3	-1.577198714E-1	1.589052692E-1
7.041782417E0	-1.355122377E-2	-2.530562558E-2	-1.713403755E-1	1.737283358E-1
7.051822417E0	-7.475418532E-3	-2.068711094E-2	-1.616100240E-1	1.631000867E-1
7.061862417E0	-6.197756231E-3	-8.399717147E-3	-1.659504122E-1	1.662784013E-1
7.071902417E0	-7.992221033E-3	-9.552057171E-3	-1.717888570E-1	1.722397422E-1
7.081912417E0	-1.456985442E-2	6.224909239E-3	-1.684962898E-1	1.692395635E-1
7.091953417E0	-1.069291290E-3	-3.168286392E-3	-1.533783138E-1	1.534147599E-1
7.101993417E0	5.672128089E-3	-4.541386217E-3	-1.463429439E-1	1.465232216E-1
7.112033417E0	-2.394900760E-3	2.935293121E-3	-1.426007259E-1	1.426510376E-1
7.122073417E0	3.038067073E-3	2.235116456E-3	-1.607136458E-1	1.607578973E-1
7.132083417E0	1.025843737E-2	5.408711024E-3	-1.756819332E-1	1.760642818E-1
7.142123417E0	1.796193385E-2	8.816724122E-3	-1.634074581E-1	1.646279534E-1
7.152164417E0	9.589113900E-3	1.897839007E-2	-1.608627498E-1	1.622619939E-1
7.162204417E0	3.849843331E-3	1.443845652E-2	-1.626584297E-1	1.633433656E-1
7.172214417E0	1.119869705E-3	-9.820490051E-4	-1.665509212E-1	1.665575813E-1
7.182254417E0	-5.623130249E-3	-1.145880679E-3	-1.572731441E-1	1.573778082E-1
7.192294417E0	-1.256538321E-2	1.477582259E-3	-1.499395663E-1	1.504724082E-1
7.202335417E0	-1.561796783E-2	-9.844472772E-3	-1.673034579E-1	1.683189876E-1
7.212375417E0	-1.374966365E-2	-1.371167502E-2	-1.723922896E-1	1.734824625E-1
7.222385417E0	-1.978177923E-2	-7.986858040E-3	-1.598155135E-1	1.612330830E-1
7.232425417E0	-2.362429527E-2	-9.729529303E-3	-1.493373030E-1	1.515070993E-1
7.242465417E0	-1.664840254E-2	-1.031161048E-2	-1.680478084E-1	1.691850009E-1
7.252506417E0	-1.000844149E-2	-5.608786298E-3	-1.696943843E-1	1.700817787E-1
7.262546417E0	-2.631740402E-3	-8.456590455E-3	-1.541255879E-1	1.543798460E-1
7.272556417E0	-1.103164027E-2	-6.788151423E-3	-1.608604109E-1	1.613810642E-1
7.282596417E0	5.616597813E-3	-3.426605416E-3	-1.581654292E-1	1.583022135E-1
7.292636417E0	1.837306621E-2	5.532781631E-3	-1.565188533E-1	1.576906233E-1
7.302676417E0	3.044206649E-5	7.213143501E-3	-1.476895577E-1	1.478656005E-1
7.312717417E0	-5.286513353E-3	1.122610588E-2	-1.511329830E-1	1.516415221E-1
7.322726417E0	9.430645220E-4	3.624241306E-3	-1.554745406E-1	1.555196363E-1
7.332767417E0	-1.095643046E-2	6.758741755E-3	-1.650569576E-1	1.655582170E-1
7.342807417E0	-1.189431472E-2	2.748227902E-3	-1.617632210E-1	1.622232017E-1
7.352847417E0	-9.370327536E-3	-1.159701121E-2	-1.502377743E-1	1.509757680E-1
7.362888417E0	-6.319012865E-3	-6.937410738E-3	-1.497863692E-1	1.500800253E-1
7.372897417E0	-1.177008879E-2	4.435907928E-3	-1.608615804E-1	1.613525962E-1
7.382938417E0	-9.182047192E-3	-1.637741150E-3	-1.672976106E-1	1.675574012E-1
7.392978417E0	-4.153277278E-3	-9.498198833E-3	-1.641529781E-1	1.644799857E-1
7.403018417E0	-1.937264772E-3	-6.572306938E-3	-1.617573738E-1	1.619024280E-1
7.413028417E0	5.485693272E-4	-1.225220086E-2	-1.580145711E-1	1.584898168E-1
7.423068417E0	-2.988594146E-3	-4.309772523E-3	-1.654995918E-1	1.655826704E-1
7.433109417E0	-5.130630238E-3	2.804754032E-3	-1.631045723E-1	1.632093487E-1
7.443149417E0	-2.303528879E-3	-2.457000017E-3	-1.568188155E-1	1.568549775E-1
7.453189417E0	2.489543427E-4	2.254759446E-3	-1.589138728E-1	1.589300629E-1
7.463199417E0	-3.664495731E-3	-2.907710709E-3	-1.632542610E-1	1.633212694E-1
7.473239417E0	3.047852023E-3	-2.600028394E-3	-1.412494344E-1	1.413062357E-1
7.483279417E0	8.379489435E-3	-3.312950162E-3	-1.431953877E-1	1.434786066E-1
7.493320417E0	2.171929982E-3	-7.663972965E-3	-1.668467903E-1	1.670368379E-1
7.503360417E0	-5.809839154E-3	-7.850453462E-3	-1.701405269E-1	1.704206054E-1
7.513370417E0	-5.576252025E-3	7.013917901E-5	-1.601137215E-1	1.602108090E-1
7.523410417E0	-4.964916492E-3	-1.888943017E-3	-1.581677681E-1	1.582569473E-1
7.533450417E0	-1.293760417E-2	-2.950797379E-3	-1.614615047E-1	1.620058836E-1
7.543491417E0	-4.032075461E-3	-8.126350679E-3	-1.623596370E-1	1.626128745E-1
7.553531417E0	-9.111898877E-3	-1.107060649E-3	-1.610124385E-1	1.612738592E-1
7.563541417E0	-1.046820623E-2	-1.974540772E-3	-1.572702205E-1	1.576305948E-1
7.573581417E0	-5.274745831E-3	-4.317145497E-3	-1.637068355E-1	1.638486762E-1
7.583621417E0	-8.166559422E-3	1.973508373E-3	-1.632571846E-1	1.634732264E-1
7.593662417E0	-5.982067063E-3	-2.580275768E-3	-1.687962520E-1	1.689219277E-1
7.603702417E0	-2.762644943E-3	-1.153315779E-2	-1.604142684E-1	1.608520545E-1
7.613712417E0	2.579974271E-3	-2.056593653E-3	-1.664018172E-1	1.664345235E-1
7.623752417E0	-3.840990281E-3	-8.273727922E-3	-1.686483175E-1	1.688948275E-1
7.633792417E0	-2.541976506E-3	-6.999089727E-3	-1.710445064E-1	1.712065188E-1
7.643832417E0	-5.287253391E-4	4.860132560E-4	-1.575731063E-1	1.575747429E-1
7.653873417E0	-1.124928460E-2	-3.236844996E-3	-1.499401510E-1	1.503963844E-1
7.663882417E0	-1.240973764E-2	-4.891844569E-3	-1.529339254E-1	1.535145507E-1
7.673923417E0	-5.466653276E-3	-1.038374137E-3	-1.547301900E-1	1.548302110E-1
7.683963417E0	-2.258652412E-2	9.780345261E-3	-1.589226437E-1	1.608173277E-1
7.694003417E0	-1.149685937E-2	-4.663419435E-3	-1.493437350E-1	1.498581877E-1
7.704013417E0	-1.756083313E-3	-1.132983000E-2	-1.554803878E-1	1.559025332E-1
7.714053417E0	-9.879921516E-3	3.752633370E-4	-1.593722945E-1	1.596786834E-1
7.724094417E0	-5.952291945E-3	-9.172819555E-5	-1.571257943E-1	1.572385240E-1
7.734134417E0	-1.152784961E-2	-3.061867068E-3	-1.584724081E-1	1.589206420E-1
7.744174417E0	-7.694926662E-3	-2.987844972E-3	-1.494916695E-1	1.497193988E-1
7.754184417E0	-7.753444500E-3	-6.719172550E-3	-1.616158712E-1	1.619412023E-1
7.764224417E0	-4.618825279E-3	-8.880440500E-3	-1.583221346E-1	1.586382491E-1
7.774265417E0	-1.904675681E-3	-8.575435113E-3	-1.526339632E-1	1.528865351E-1
7.784305417E0	-3.394052871E-3	-6.526917927E-3	-1.607154000E-1	1.608836848E-1
7.794345417E0	-1.704203892E-2	4.116293639E-3	-1.581718612E-1	1.591405436E-1
7.804355417E0	1.777005382E-4	3.997366754E-3	-1.607171541E-1	1.607669560E-1
7.814395417E0	-4.545579767E-3	7.076400882E-3	-1.587712008E-1	1.589938110E-1
7.824435417E0	-9.726322470E-3	-4.550412856E-3	-1.590699935E-1	1.594320245E-1
7.834476417E0	-1.258109760E-2	2.142794402E-3	-1.524831051E-1	1.530162505E-1
7.844516417E0	-9.891972262E-3	-2.813862897E-3	-1.590694088E-1	1.594015237E-1
7.854526417E0	-7.309997147E-3	-8.260681322E-3	-1.602669185E-1	1.606460709E-1
7.864566417E0	-1.303067540E-2	-1.716998331E-3	-1.571211165E-1	1.576698825E-1
7.874606417E0	-4.307808224E-3	1.224443503E-4	-1.662515438E-1	1.663073901E-1
7.884647417E0	-7.918847613E-3	-3.393614329E-3	-1.562212300E-1	1.564586127E-1
7.894687417E0	-8.252769308E-3	1.081734896E-3	-1.452951229E-1	1.455333332E-1
7.904697417E0	-1.594122749E-2	3.063767413E-3	-1.443981600E-1	1.453077355E-1
7.914737417E0	-1.350800919E-2	-2.708293246E-3	-1.593664473E-1	1.599608255E-1
7.924777417E0	-1.159522050E-2	-7.051833440E-4	-1.701457894E-1	1.705418895E-1
7.934818417E0	-7.492293231E-3	-1.817853665E-3	-1.598184371E-1	1.600042871E-1
7.944827417E0	-1.026560934E-2	-6.768608931E-3	-1.557785958E-1	1.562631361E-1
7.954868417E0	-1.158354434E-2	-9.927950911E-3	-1.628127962E-1	1.635259898E-1
7.964908417E0	-3.730523586E-4	-9.804702569E-3	-1.556277376E-1	1.559367310E-1
7.974934375E0	-8.828226691E-3	-1.008840216E-2	-1.578724837E-1	1.584406342E-1
7.984974375E0	-1.035827857E-2	1.469615428E-3	-1.619134945E-1	1.622511430E-1
7.994984375E0	-1.226899333E-2	1.426903345E-3	-1.711941952E-1	1.716392050E-1
8.005024375E0	-1.284733778E-3	3.125336766E-4	-1.719426388E-1	1.719477224E-1
8.015065375E0	4.346582573E-3	-7.187963929E-4	-1.578701448E-1	1.579316057E-1
8.025105375E0	-1.749834102E-3	1.762697976E-3	-1.454448116E-1	1.454660175E-1
8.035145375E0	2.816220056E-3	-1.846632930E-3	-1.433480000E-1	1.433875527E-1
8.045155375E0	2.566215042E-3	-2.475098977E-3	-1.458915389E-1	1.459350975E-1
8.055195375E0	5.642453469E-3	-1.397246998E-3	-1.515808797E-1	1.516922960E-1
8.065236375E0	4.097975409E-3	-6.210300336E-3	-1.434982735E-1	1.436910426E-1
8.075276375E0	-8.456307231E-3	-3.300205059E-3	-1.652025533E-1	1.654517576E-1
8.085316375E0	-1.969701287E-2	-1.722772457E-3	-1.767280000E-1	1.778306111E-1
8.095326375E0	-2.171703402E-2	-6.126484154E-3	-1.611592036E-1	1.627312272E-1
8.105366375E0	-1.765010367E-2	-6.096115177E-3	-1.545717305E-1	1.556955640E-1
8.115407375E0	-1.940858069E-2	-2.160244687E-3	-1.617573738E-1	1.629319111E-1
8.125447375E0	-1.072183834E-2	2.174131824E-3	-1.476866341E-1	1.480912778E-1
8.135487375E0	-4.543715967E-3	-3.737394065E-3	-1.487327009E-1	1.488490168E-1
8.145497375E0	-1.266397275E-3	-2.724217772E-3	-1.619053084E-1	1.619331776E-1
8.155537375E0	3.095936235E-3	5.031867111E-3	-1.544197029E-1	1.545326799E-1
8.165577375E0	1.286915520E-2	4.068574877E-3	-1.575614119E-1	1.581384424E-1
8.175618375E0	9.376293523E-3	-3.576440318E-3	-1.571117610E-1	1.574319257E-1
8.185658375E0	2.109081550E-3	3.489691392E-4	-1.696856135E-1	1.696990791E-1
8.195668375E0	5.994775621E-3	-1.035784917E-2	-1.738757282E-1	1.742870943E-1
8.205708375E0	8.159195585E-3	-5.885770731E-4	-1.611533564E-1	1.613608477E-1
8.215748375E0	8.142019389E-3	4.245398333E-3	-1.527719575E-1	1.530476622E-1
8.225789375E0	5.771485073E-3	1.728626068E-2	-1.608569026E-1	1.618859721E-1
8.235798375E0	-3.024061164E-3	8.085675985E-3	-1.758251899E-1	1.760369862E-1
8.245839375E0	-1.041994843E-2	3.514679102E-3	-1.660942537E-1	1.664578908E-1
8.255879375E0	-2.711984301E-3	-1.829228327E-3	-1.478322297E-1	1.478684181E-1
8.265919375E0	-1.819242379E-3	-1.040802559E-2	-1.440894270E-1	1.444762943E-1
8.275960375E0	-1.310735615E-2	-5.516455108E-3	-1.630993098E-1	1.637181081E-1
8.285969375E0	-1.587013814E-2	-7.111593811E-3	-1.642950654E-1	1.652129068E-1
8.296010375E0	-1.305999370E-2	-1.815270840E-2	-1.738739741E-1	1.753061411E-1
8.306050375E0	-3.105973346E-2	-3.055017603E-2	-1.767151362E-1	1.820062077E-1
8.316090375E0	-1.799594820E-2	-2.543209903E-2	-1.434836555E-1	1.468271269E-1
8.326130375E0	-3.227361543E-3	-2.778313654E-3	-1.520170820E-1	1.520767178E-1
8.336140375E0	-9.634329323E-3	2.117390078E-2	-1.725244367E-1	1.740857135E-1
8.346180375E0	-5.440075854E-3	2.269896425E-2	-1.475270051E-1	1.493621593E-1
8.356221375E0	1.958077205E-3	1.283971813E-2	-1.460318720E-1	1.466083220E-1
8.366261375E0	5.752499895E-3	1.295616908E-2	-1.506710529E-1	1.513364456E-1
8.376301375E0	9.445683528E-3	7.830344522E-3	-1.608469623E-1	1.613142291E-1
8.386311375E0	8.679734822E-3	-7.974697659E-3	-1.716210419E-1	1.720253342E-1
8.396351375E0	-8.929611929E-4	-1.088808199E-2	-1.386877692E-1	1.391173786E-1
8.406392375E0	-4.788339715E-3	-2.505495362E-3	-1.442262518E-1	1.443274659E-1
8.416432375E0	-1.532532382E-2	-1.272259109E-2	-1.731161749E-1	1.742582563E-1
8.426472375E0	-1.569542516E-2	-2.259149426E-2	-1.832985163E-1	1.853512019E-1
8.436482375E0	-1.677180620E-2	-1.008771694E-2	-1.592003864E-1	1.603989356E-1
8.446522375E0	-9.954820694E-3	-6.893209442E-3	-1.475240815E-1	1.480201655E-1
8.456563375E0	-1.627256362E-2	-4.473056020E-3	-1.454284394E-1	1.464043563E-1
8.466603375E0	-2.252315492E-2	6.424080022E-4	-1.591992170E-1	1.607858696E-1
8.476613375E0	-2.444614884E-2	1.034870376E-2	-1.645862567E-1	1.667133641E-1
8.486653375E0	-2.267349232E-4	-4.367230553E-3	-1.370435321E-1	1.371132882E-1
8.496693375E0	-2.878328450E-3	-4.080579942E-3	-1.520124042E-1	1.520944014E-1
8.506733375E0	-4.614650002E-3	-1.396086691E-2	-1.717707306E-1	1.723989115E-1
8.516774375E0	2.812008234E-3	-6.945103481E-3	-1.723700702E-1	1.725328460E-1
8.526784375E0	1.902327659E-3	-7.662821794E-3	-1.556066877E-1	1.558068642E-1
8.536824375E0	-3.102359036E-3	-2.015507827E-3	-1.654878974E-1	1.655292454E-1
8.546864375E0	3.421598738E-3	-8.092546463E-4	-1.723753327E-1	1.724111875E-1
8.556904375E0	4.691577433E-3	2.294538785E-3	-1.566609406E-1	1.567479701E-1
8.566945375E0	7.855478413E-3	7.239044840E-3	-1.553154963E-1	1.556824194E-1
8.576954375E0	-6.086988039E-3	3.283768902E-3	-1.562130439E-1	1.563660758E-1
8.586995375E0	-1.456666586E-2	-7.080795430E-4	-1.613018757E-1	1.619598229E-1
8.597035375E0	-1.035223950E-2	-1.423510132E-2	-1.624993855E-1	1.634498616E-1
8.607075375E0	-6.223822022E-3	-8.407245437E-3	-1.610001594E-1	1.613396078E-1
8.617116375E0	-7.945900122E-3	-8.225132078E-3	-1.443847114E-1	1.448369256E-1
8.627125375E0	-6.642930340E-3	-1.469995497E-2	-1.595021027E-1	1.603157446E-1
8.637166375E0	-6.542915544E-3	1.155702174E-3	-1.731249458E-1	1.732523946E-1
8.647206375E0	-5.366199939E-3	-4.167602956E-3	-1.744721442E-1	1.746043932E-1
8.657246375E0	4.104434755E-3	-3.904642705E-3	-1.542659211E-1	1.543699033E-1
8.667286375E0	-4.825944621E-3	-1.122811586E-3	-1.433380598E-1	1.434236725E-1
8.677296375E0	-1.544212195E-2	2.039810317E-3	-1.616018379E-1	1.623507744E-1
8.687336375E0	-1.412594112E-2	-2.364924643E-3	-1.616012532E-1	1.622347068E-1
8.697377375E0	-1.195095962E-2	6.131326379E-3	-1.547144026E-1	1.552963778E-1
8.707417375E0	-8.626653068E-3	5.817321762E-3	-1.642933112E-1	1.646224544E-1
8.717427375E0	-6.188071780E-3	-1.649059167E-2	-1.644418305E-1	1.653824279E-1
8.727467375E0	-4.925667057E-3	-2.272514882E-2	-1.635425287E-1	1.651873279E-1
8.737507375E0	-3.267826103E-3	-2.823257728E-2	-1.609966511E-1	1.634860201E-1
8.747548375E0	1.980342306E-3	-1.590575133E-2	-1.487215912E-1	1.495828412E-1
8.757588375E0	-2.503183885E-3	3.747279514E-3	-1.553078949E-1	1.553732611E-1
8.767598375E0	-1.125900560E-2	1.871821638E-2	-1.603990656E-1	1.618795759E-1
8.777638375E0	-6.576591851E-3	1.431620403E-2	-1.749217951E-1	1.756298371E-1
8.787678375E0	-7.633686215E-3	1.419417081E-2	-1.605516779E-1	1.613585726E-1
8.797719375E0	2.537874319E-3	3.205571529E-3	-1.506728071E-1	1.507282697E-1
8.807759375E0	-6.835285462E-3	-1.852681143E-3	-1.639945185E-1	1.641473596E-1
8.817769375E0	2.879662346E-4	-1.036319389E-2	-1.735745966E-1	1.738839248E-1
8.827809375E0	3.411000660E-3	-1.354889402E-2	-1.602517158E-1	1.608596278E-1
8.837849375E0	-1.430639167E-2	-3.501404095E-3	-1.491747504E-1	1.499000962E-1
8.847889375E0	2.707900386E-3	-7.823793814E-3	-1.578549421E-1	1.580719052E-1
8.857930375E0	-8.055188237E-3	-1.928886808E-3	-1.690821809E-1	1.692849389E-1
8.867940375E0	-8.545669131E-3	-6.739656078E-3	-1.624964619E-1	1.628605279E-1
8.877980375E0	-7.860229276E-3	-9.281714810E-3	-1.627964240E-1	1.632501428E-1
8.888020375E0	-1.498764711E-2	-1.139155467E-2	-1.657890290E-1	1.668544252E-1
8.898060375E0	-5.155965127E-3	-1.931865234E-4	-1.641418684E-1	1.642229407E-1
8.908101375E0	4.138905918E-3	-1.138251889E-3	-1.479737324E-1	1.480359808E-1
8.918110375E0	-5.418806607E-3	6.371455081E-4	-1.433310431E-1	1.434348540E-1
8.928151375E0	-6.266936101E-3	-1.160827624E-3	-1.569503778E-1	1.570797349E-1
8.938191375E0	-1.825857041E-3	-8.692754013E-3	-1.630870306E-1	1.633287399E-1
8.948231375E0	-2.216916997E-4	-1.723594721E-2	-1.494630182E-1	1.504537166E-1
8.958272375E0	6.068870807E-3	-6.773195341E-3	-1.611375690E-1	1.613940008E-1
8.968281375E0	1.713343821E-3	-4.662350491E-3	-1.587437189E-1	1.588214133E-1
8.978297375E0	-4.490341851E-3	-2.828617981E-3	-1.620380402E-1	1.621249232E-1
8.988337375E0	-1.309684943E-4	1.173162508E-2	-1.681741083E-1	1.685828546E-1
8.998377375E0	-1.176847167E-2	1.188973744E-2	-1.532069904E-1	1.541176326E-1
9.008387375E0	-1.693255895E-2	-1.974202730E-3	-1.473714691E-1	1.483541673E-1
9.018427375E0	-1.357969240E-2	4.191476041E-3	-1.591974628E-1	1.598305624E-1
9.028467375E0	-8.686148487E-3	-1.613952119E-2	-1.660819745E-1	1.670902618E-1
9.038508375E0	-9.874046892E-3	-3.467188748E-3	-1.623380023E-1	1.626749680E-1
9.048548375E0	-9.145383323E-3	-7.934205690E-3	-1.588928229E-1	1.593534399E-1
9.058558375E0	-1.127887700E-2	-1.388823353E-2	-1.767046112E-1	1.776080395E-1
9.068598375E0	-1.039094076E-2	-6.703695701E-3	-1.602370977E-1	1.607135299E-1
9.078638375E0	-1.089053052E-3	-4.208643101E-3	-1.472141790E-1	1.472783529E-1
9.088679375E0	2.402474731E-3	-1.366461407E-2	-1.536519635E-1	1.542770866E-1
9.098719375E0	-8.906405792E-3	-6.155729368E-3	-1.552997088E-1	1.556766413E-1
9.108729375E0	-5.740220742E-3	1.671828590E-3	-1.678741461E-1	1.679805765E-1
9.118769375E0	-1.323771251E-2	3.517712345E-3	-1.666766363E-1	1.672384897E-1
9.128809375E0	-1.290145193E-2	-2.140437244E-3	-1.641325128E-1	1.646526972E-1
9.138850375E0	-9.004081702E-3	-1.654990437E-3	-1.475158954E-1	1.477997018E-1
9.148890375E0	-2.609996069E-3	-8.334840462E-3	-1.520053875E-1	1.522560984E-1
9.158900375E0	1.376745198E-4	-4.990424970E-3	-1.457172918E-1	1.458027861E-1
9.168940375E0	-2.224445287E-3	3.389968956E-3	-1.515539825E-1	1.516082110E-1
9.178980375E0	9.310685936E-4	-2.626450500E-3	-1.659229302E-1	1.659463284E-1
9.189020375E0	-1.769513637E-3	-6.430402324E-3	-1.743031597E-1	1.744307104E-1
9.199061375E0	-3.761678282E-4	-8.253025124E-3	-1.638237798E-1	1.640319626E-1
9.209071375E0	-3.752423236E-3	-6.616553916E-3	-1.551424187E-1	1.553287789E-1
9.219111375E0	-3.833032586E-3	-2.722774241E-3	-1.581379473E-1	1.582078254E-1
9.229151375E0	-1.699279441E-2	-6.768417070E-3	-1.630788445E-1	1.641014201E-1
9.239191375E0	-1.681624504E-2	6.082474720E-4	-1.654756182E-1	1.663290002E-1
9.249201375E0	-3.973831711E-3	-9.119838299E-3	-1.612843341E-1	1.615908389E-1
9.259241375E0	-1.084370711E-2	-7.684840215E-3	-1.663731658E-1	1.669031847E-1
9.269282375E0	-5.912101474E-3	-1.214444764E-2	-1.551441729E-1	1.557310340E-1
9.279322375E0	-1.067108634E-2	-1.868650437E-2	-1.516978240E-1	1.532164721E-1
9.289362375E0	-1.216096602E-2	-1.916946611E-2	-1.519960320E-1	1.536819810E-1
9.299372375E0	-2.238661330E-3	-7.260140497E-3	-1.621748650E-1	1.623527274E-1
9.309412375E0	4.362178193E-3	2.433446702E-4	-1.648692620E-1	1.649271396E-1
9.319453375E0	-7.075724797E-3	3.507214766E-3	-1.719034624E-1	1.720847664E-1
9.329493375E0	-5.058965301E-3	-6.449387502E-4	-1.572339678E-1	1.573166542E-1
9.339533375E0	-3.179240786E-4	-1.348998332E-3	-1.641208184E-1	1.641266703E-1
9.349543375E0	7.916947268E-4	1.364456909E-3	-1.645687151E-1	1.645762757E-1
9.359583375E0	1.888276068E-3	-4.236170696E-3	-1.591799212E-1	1.592474742E-1
9.369623375E0	3.715576641E-3	7.646138957E-3	-1.570836943E-1	1.573135594E-1
9.379664375E0	1.926803738E-3	4.540253319E-3	-1.572310442E-1	1.573083842E-1
9.389704375E0	-8.024298493E-4	-4.327652212E-3	-1.489964104E-1	1.490614060E-1
9.399714375E0	4.645978287E-4	-1.159479110E-2	-1.527386284E-1	1.531787963E-1
9.409754375E0	-7.417933093E-3	-9.338734299E-3	-1.656124431E-1	1.660413171E-1
9.419794375E0	-1.254414137E-2	-1.032522353E-2	-1.584273845E-1	1.592582867E-1
9.429835375E0	-1.881602020E-2	-7.894609077E-3	-1.642669988E-1	1.655294969E-1
9.439875375E0	-1.436301830E-2	-1.031872764E-2	-1.678589433E-1	1.687880247E-1
9.449885375E0	-1.133732175E-2	-2.219657879E-4	-1.605236113E-1	1.609236276E-1
9.459925375E0	-9.702166161E-3	1.432805378E-3	-1.623187065E-1	1.626147209E-1
9.469965375E0	-9.728560857E-3	-3.174626967E-3	-1.636641508E-1	1.639837718E-1
9.480006375E0	-4.672857206E-3	-3.673074692E-3	-1.557288945E-1	1.558422781E-1
9.490015375E0	-6.624849653E-3	-1.320610100E-2	-1.530321586E-1	1.537437196E-1
9.500056375E0	-2.794631040E-3	-1.239705649E-2	-1.551266313E-1	1.556462936E-1
9.510096375E0	4.695076626E-3	-8.225442711E-3	-1.500354606E-1	1.503340982E-1
9.520136375E0	-7.307831850E-3	1.918434910E-3	-1.606627750E-1	1.608403310E-1
9.530176375E0	-1.233270971E-2	9.072092129E-3	-1.696446830E-1	1.703341336E-1
9.540186375E0	-7.145434571E-3	2.582568973E-3	-1.588659257E-1	1.590475062E-1
9.550227375E0	-1.202288037E-2	1.298821913E-3	-1.609598136E-1	1.614134387E-1
9.560267375E0	-5.978595279E-4	-3.732359977E-3	-1.682939762E-1	1.683364202E-1
9.570307375E0	-7.822185829E-3	8.886123262E-4	-1.626052201E-1	1.627956812E-1
9.580347375E0	-8.992533451E-3	-5.416166224E-3	-1.569158792E-1	1.572666324E-1
9.590357375E0	9.058890212E-4	-5.077831708E-3	-1.519749820E-1	1.520624877E-1
9.600397375E0	-9.200465921E-3	-1.477395879E-2	-1.658960330E-1	1.668065113E-1
9.610438375E0	-3.509772923E-3	-6.187925600E-3	-1.724799979E-1	1.726266451E-1
9.620478375E0	-1.853567362E-4	-5.563506922E-3	-1.522708511E-1	1.523725667E-1
9.630518375E0	-7.819591127E-3	-1.762347143E-2	-1.437391788E-1	1.450264950E-1
9.640528375E0	-3.912472492E-3	-1.477333752E-2	-1.552657950E-1	1.560161083E-1
9.650568375E0	-1.950526075E-2	-5.669058301E-3	-1.521229166E-1	1.534730438E-1
9.660609375E0	-2.115359084E-2	-5.542648807E-3	-1.612539285E-1	1.627299138E-1
9.670649375E0	-2.012100910E-2	5.827143257E-3	-1.615527213E-1	1.629051637E-1
9.680689375E0	-1.774517574E-2	7.782580080E-3	-1.681390250E-1	1.692518583E-1
9.690699375E0	-1.393386008E-2	-1.794263804E-3	-1.561627579E-1	1.567934271E-1
9.700739375E0	-8.703671861E-4	-1.745093289E-2	-1.459827554E-1	1.470246832E-1
9.710780375E0	3.646003911E-3	-2.849996863E-3	-1.485257095E-1	1.485977867E-1
9.720820375E0	5.172401285E-3	-1.208252197E-2	-1.569065237E-1	1.574560201E-1
9.730860375E0	9.578853864E-3	-6.295359051E-3	-1.657369888E-1	1.661328849E-1
9.740870375E0	7.384238513E-3	-4.542930247E-3	-1.566048074E-1	1.568446075E-1
9.750910375E0	2.984592458E-3	-4.027452506E-4	-1.567556655E-1	1.567845932E-1
9.760950375E0	1.269658925E-3	-4.049370429E-3	-1.594529861E-1	1.595094487E-1
9.770991375E0	-8.440547157E-4	-5.422241846E-3	-1.631975430E-1	1.632897767E-1
9.781000375E0	-1.230815141E-2	-6.812371686E-3	-1.548178983E-1	1.554557192E-1
9.791041375E0	-2.132149729E-2	-1.729018014E-2	-1.629034281E-1	1.652001315E-1
9.801081375E0	-6.640655408E-3	-2.287474617E-2	-1.709877884E-1	1.726388604E-1
9.811121375E0	-5.527921133E-3	-1.279838562E-2	-1.557177848E-1	1.563406060E-1
9.821162375E0	-9.145383323E-3	-1.650053194E-2	-1.531707376E-1	1.543281583E-1
9.831171375E0	-1.603522148E-2	-1.455317158E-2	-1.564609659E-1	1.579523883E-1
9.841212375E0	-6.598445820E-3	-5.519378716E-3	-1.554125601E-1	1.556504638E-1
9.851252375E0	-7.791652400E-3	-1.127955308E-2	-1.688851297E-1	1.694406244E-1
9.861292375E0	-8.023147322E-3	-5.131580411E-3	-1.796633023E-1	1.799155530E-1
9.871332375E0	-5.711980518E-3	-1.315687476E-3	-1.733775455E-1	1.734766008E-1
9.881342375E0	3.047550526E-3	-7.872270886E-4	-1.528719449E-1	1.529043454E-1
9.891383375E0	-5.610312056E-4	8.320167605E-3	-1.530222183E-1	1.532492716E-1
9.901423375E0	-1.264090366E-2	5.676778452E-3	-1.545202750E-1	1.551403676E-1
9.911463375E0	-8.936418453E-3	-2.251817565E-4	-1.669450235E-1	1.671841834E-1
9.921503375E0	-6.172467023E-4	-1.352299268E-2	-1.585607010E-1	1.591375136E-1
9.931513375E0	-2.998735411E-3	-9.927000739E-3	-1.575117105E-1	1.578527057E-1
9.941553375E0	-8.660228876E-3	-1.152307134E-2	-1.627502310E-1	1.633873264E-1
9.951594375E0	-6.905689593E-3	-6.743849628E-3	-1.676893741E-1	1.679669439E-1
9.961634375E0	-1.501749532E-2	-1.319442485E-2	-1.612539285E-1	1.624882995E-1
9.971644750E0	-1.056505987E-2	-3.296742411E-3	-1.534695303E-1	1.538680790E-1
9.981654750E0	-1.182706260E-2	4.091534335E-3	-1.633519095E-1	1.638306028E-1
9.991694750E0	-1.495215269E-2	-4.952253615E-3	-1.676934671E-1	1.684315606E-1
1.000173575E1	-1.997496575E-2	-5.332139907E-3	-1.632028055E-1	1.645071023E-1
1.001177575E1	-1.052941013E-2	-9.524821937E-3	-1.497296512E-1	1.504013270E-1
1.002178575E1	-1.271361013E-2	-6.726856157E-4	-1.449390274E-1	1.454971136E-1
1.003182575E1	-5.746497363E-3	4.274515640E-3	-1.661942410E-1	1.663484880E-1
1.004186575E1	-1.440427772E-2	-1.123579033E-4	-1.736786771E-1	1.742750089E-1
1.005190675E1	-8.540625907E-3	6.684920657E-4	-1.738271964E-1	1.740381664E-1
1.006194675E1	-1.021570701E-2	-6.330816932E-3	-1.584098428E-1	1.588650944E-1
1.007195675E1	-6.864640312E-3	-4.960348355E-3	-1.717315543E-1	1.719402660E-1
1.008199675E1	-1.027289095E-2	-4.797859713E-3	-1.711316299E-1	1.715068119E-1
1.009203675E1	-1.284504457E-2	-1.797205685E-3	-1.697856009E-1	1.702802848E-1
1.010207675E1	-1.521458304E-2	2.467753412E-3	-1.335626847E-1	1.344491133E-1
1.011211775E1	-4.229144901E-3	-1.541894322E-2	-1.766730362E-1	1.773950146E-1
1.012212675E1	-2.811898598E-3	-5.288313199E-3	-1.639500797E-1	1.640594455E-1
1.013216775E1	-6.429927237E-3	-2.684182618E-3	-1.447887540E-1	1.449563109E-1
1.014220775E1	-1.950320508E-3	-1.544180218E-2	-1.720315164E-1	1.727341763E-1
1.015224775E1	9.012477938E-4	-2.559874468E-3	-1.637974674E-1	1.638199485E-1
1.016228875E1	-3.612711327E-3	-7.258441150E-3	-1.614018631E-1	1.616053776E-1
1.017229775E1	-9.167410880E-3	-7.334783860E-3	-1.723285550E-1	1.727280271E-1
1.018233875E1	-1.444417583E-3	-8.506931327E-3	-1.718800735E-1	1.720965250E-1
1.019237875E1	-9.662313731E-3	-1.629020576E-2	-1.518235391E-1	1.530003861E-1
1.020241875E1	-1.057304498E-2	-1.307106687E-2	-1.590091825E-1	1.598954726E-1
1.021245875E1	-1.125693167E-2	4.452791763E-3	-1.714339310E-1	1.718608116E-1
1.022246875E1	-1.087302541E-2	9.173541320E-3	-1.736792618E-1	1.742609036E-1
1.023250975E1	-5.781644611E-3	1.860501794E-3	-1.626028812E-1	1.627162741E-1
1.024254975E1	-7.799345143E-3	-5.103522912E-3	-1.587092203E-1	1.589826794E-1
1.025258975E1	-2.760726325E-3	-8.705992475E-3	-1.685869217E-1	1.688341378E-1
1.026259975E1	-3.059939314E-3	3.208997631E-3	-1.528690213E-1	1.529333141E-1
1.027263975E1	2.947919453E-3	-6.895402148E-3	-1.690348184E-1	1.692010834E-1
1.028267975E1	-5.929579167E-3	-1.889108383E-2	-1.622999954E-1	1.635032766E-1
1.029272075E1	-7.136526704E-3	-1.168306578E-2	-1.596067679E-1	1.601928350E-1
1.030276075E1	-7.667006208E-3	-1.571469356E-2	-1.617047489E-1	1.626473498E-1
1.031277075E1	-1.439594544E-2	-9.260673970E-3	-1.543717557E-1	1.553178750E-1
1.032281075E1	-9.799650209E-3	-1.394195482E-4	-1.635033524E-1	1.637968218E-1
1.033285075E1	-1.699630274E-2	-1.244278355E-3	-1.724852604E-1	1.733250922E-1
1.034289175E1	-1.147561753E-2	-2.096793260E-3	-1.823653007E-1	1.827380344E-1
1.035293175E1	-4.620698215E-3	-5.181044200E-3	-1.585653788E-1	1.587172751E-1
1.036294175E1	2.602476915E-3	-8.685042998E-3	-1.519773209E-1	1.522475252E-1
1.037298175E1	-1.086613666E-3	-1.408187686E-2	-1.377574772E-1	1.384796104E-1
1.038302175E1	-6.548470398E-3	1.974403728E-3	-1.597611344E-1	1.599074757E-1
1.039306275E1	-7.555790339E-3	4.972773688E-3	-1.738324589E-1	1.740676368E-1
1.040310275E1	-8.296148339E-3	-6.080135833E-3	-1.757772428E-1	1.760779180E-1
1.041311275E1	-1.876252731E-3	-5.151396990E-3	-1.756275541E-1	1.757131041E-1
1.042315275E1	-2.754312661E-3	-1.270811009E-2	-1.720361942E-1	1.725269093E-1
1.043319275E1	-1.157200523E-2	-8.301438242E-3	-1.579660392E-1	1.586067297E-1
1.044323275E1	-1.973601563E-2	1.743621435E-3	-1.551225382E-1	1.563827113E-1
1.045327375E1	-1.871800625E-2	9.681810541E-3	-1.588647562E-1	1.602563945E-1
1.046328275E1	-6.662975326E-3	-1.048844308E-3	-1.587144828E-1	1.588577425E-1
1.047332375E1	-4.162897775E-3	-1.037296057E-2	-1.560195011E-1	1.564193490E-1
1.048336375E1	3.309551468E-3	-1.775831371E-2	-1.714368546E-1	1.723859216E-1
1.049340375E1	-2.943798993E-4	-1.708603922E-2	-1.635015982E-1	1.643921897E-1
1.050344475E1	4.417269928E-3	-1.506264679E-2	-1.600587577E-1	1.608266194E-1
1.051345375E1	-5.337521173E-3	-1.934147475E-2	-1.670941275E-1	1.682944718E-1
1.052349475E1	-1.003968755E-2	-8.196206633E-3	-1.730828458E-1	1.735674066E-1
1.053353475E1	-4.974262901E-3	-4.455925506E-3	-1.721858829E-1	1.723153413E-1
1.054357475E1	-1.402407166E-2	1.717875414E-3	-1.564697367E-1	1.571063467E-1
1.055358475E1	-1.590380531E-2	-7.786526950E-3	-1.527275187E-1	1.537506292E-1
1.056362475E1	-1.290469531E-2	-1.137173809E-2	-1.563200480E-1	1.572634890E-1
1.057366575E1	-1.285898653E-2	-2.404576074E-4	-1.573672843E-1	1.578919679E-1
1.058370575E1	-2.096847164E-2	-2.533214819E-4	-1.641032767E-1	1.654376813E-1
1.059374575E1	-9.605540922E-3	2.410660833E-3	-1.570673221E-1	1.573792279E-1
1.060375575E1	-8.415331040E-3	-9.186825464E-3	-1.829628861E-1	1.833865678E-1
1.061379575E1	-1.040005876E-2	-1.076123396E-2	-1.712848270E-1	1.719373646E-1
1.062383575E1	5.462021185E-3	-7.700947467E-3	-1.534695303E-1	1.537596664E-1
1.063387675E1	-2.079416066E-4	-1.343690157E-2	-1.569123709E-1	1.574867795E-1
1.064391675E1	-4.829142317E-3	-7.476578839E-4	-1.578099185E-1	1.578855598E-1
1.065392675E1	-1.012053444E-2	4.699060041E-4	-1.649961466E-1	1.653069097E-1
1.066396675E1	-1.279823030E-2	1.520075072E-3	-1.735284036E-1	1.740063568E-1
1.067400675E1	-1.356099959E-2	3.711593226E-3	-1.673917508E-1	1.679811742E-1
1.068404775E1	-1.296583526E-2	-1.012171302E-2	-1.660439676E-1	1.668567084E-1
1.069408775E1	-1.443640999E-2	-3.841063371E-3	-1.663421756E-1	1.670116256E-1
1.070409775E1	-7.228602078E-3	-7.761210334E-3	-1.667900723E-1	1.671269496E-1
1.071413775E1	-3.383409111E-3	-1.039812187E-2	-1.673876578E-1	1.677444377E-1
1.072417775E1	-5.813073395E-3	-1.804715702E-3	-1.569082779E-1	1.570262923E-1
1.073421875E1	-4.118385846E-3	1.141440449E-3	-1.593032974E-1	1.593606117E-1
1.074425875E1	-1.791925832E-2	1.175814768E-2	-1.560101455E-1	1.574754564E-1
1.075426875E1	-1.700755863E-2	-6.683102539E-3	-1.652902615E-1	1.662972984E-1
1.076430875E1	-1.193338143E-2	-2.085966775E-3	-1.602020144E-1	1.606593984E-1
1.077434875E1	-4.811326582E-3	-1.170813572E-2	-1.657404971E-1	1.662231683E-1
1.078438875E1	-8.807743164E-3	-4.451339096E-3	-1.747218204E-1	1.750003008E-1
1.079439875E1	-3.570574829E-3	-7.475400260E-3	-1.762181228E-1	1.764127474E-1
1.080443875E1	-4.449895564E-3	-9.144606739E-3	-1.745703775E-1	1.748663549E-1
1.081447975E1	-4.032468321E-3	-6.029201103E-3	-1.555593252E-1	1.557283395E-1
1.082451975E1	-2.446968388E-3	-9.269463066E-3	-1.579525906E-1	1.582432668E-1
1.083455975E1	-2.908368520E-3	-1.301021014E-2	-1.594494778E-1	1.600058128E-1
1.084456975E1	-3.372838441E-3	-3.490056843E-4	-1.757649636E-1	1.757976686E-1
1.085460975E1	-8.214040641E-3	-3.302936805E-3	-1.709737551E-1	1.712028177E-1
1.086465075E1	5.071545951E-4	-1.343444391E-2	-1.527123159E-1	1.533029449E-1
1.087469075E1	-9.920331258E-3	-4.053289890E-3	-1.660357815E-1	1.663812576E-1
1.088473075E1	-1.096326440E-2	-2.739329170E-4	-1.709790176E-1	1.713303612E-1
1.089474075E1	-1.138684949E-2	-1.042272585E-2	-1.634945816E-1	1.642217153E-1
1.090478075E1	-1.560990050E-2	-8.750705402E-3	-1.609498733E-1	1.619416733E-1
1.091482175E1	-1.209976212E-2	-9.770633401E-3	-1.498723233E-1	1.506770812E-1
1.092486175E1	-1.121902526E-2	-1.499947859E-2	-1.555593252E-1	1.566829747E-1
1.093490175E1	-1.436865538E-2	-7.660291046E-3	-1.593015432E-1	1.601315709E-1
1.094491175E1	-1.227556231E-2	-3.646972356E-3	-1.542115420E-1	1.547423327E-1
1.095495175E1	-1.033142706E-2	-4.692079928E-3	-1.594506472E-1	1.598538798E-1
1.096499175E1	-5.184726119E-3	6.543226177E-3	-1.545103347E-1	1.547357061E-1
1.097503054E1	-1.208847882E-3	-2.401140835E-3	-1.613971853E-1	1.614195720E-1
1.098507054E1	-7.999036694E-3	2.016558498E-4	-1.630420071E-1	1.632382349E-1
1.099508054E1	-6.022038264E-3	1.117951088E-2	-1.591512698E-1	1.596570483E-1
1.100512054E1	-6.692522038E-3	-1.164356967E-2	-1.670847720E-1	1.676236367E-1
1.101516054E1	-1.082165214E-2	-5.148181021E-3	-1.649902993E-1	1.654249401E-1
1.102520154E1	-1.618631719E-2	-3.649941646E-4	-1.657387429E-1	1.665276584E-1
1.103521054E1	-8.433356909E-3	-3.771910910E-3	-1.628946573E-1	1.631564224E-1
1.104525154E1	-9.051663419E-3	-4.017256424E-3	-1.533134097E-1	1.536329149E-1
1.105529154E1	-2.212851355E-3	-1.017255639E-2	-1.500196731E-1	1.503804506E-1
1.106533154E1	5.125175882E-4	-1.475960570E-2	-1.669350833E-1	1.675870838E-1
1.107537254E1	-7.612828100E-3	-1.430725048E-2	-1.706773013E-1	1.714450167E-1
1.108538154E1	-1.184636755E-2	-7.140263440E-3	-1.721736038E-1	1.727283116E-1
1.109542254E1	-4.594806014E-3	-1.312772091E-2	-1.594506472E-1	1.600561095E-1
1.110546254E1	-1.241503668E-2	-1.386983307E-2	-1.660363662E-1	1.670765702E-1
1.111550254E1	-1.178384802E-2	-7.565483926E-3	-1.697779995E-1	1.703545266E-1
1.112554254E1	-1.870039151E-2	-1.448373590E-3	-1.655873001E-1	1.666462012E-1
1.113555254E1	-1.685482753E-2	-3.089221073E-3	-1.651388186E-1	1.660254737E-1
1.114559254E1	-1.331194474E-2	-4.953477876E-3	-1.570573819E-1	1.576983387E-1
1.115563354E1	-8.654591795E-3	-1.731433645E-3	-1.581034487E-1	1.583496142E-1
1.116567354E1	-1.116626328E-2	6.331164110E-4	-1.673823953E-1	1.677556333E-1
1.117571354E1	-1.841352163E-2	-3.864059374E-3	-1.684313858E-1	1.694789675E-1
1.118572354E1	-1.167717288E-2	-1.253836725E-2	-1.549594009E-1	1.559037618E-1
1.119576354E1	-1.555429713E-2	-4.443701170E-4	-1.597494400E-1	1.605055052E-1
1.120580454E1	-6.427707123E-3	-6.599039678E-4	-1.673823953E-1	1.675070659E-1
1.121584454E1	-6.314353365E-4	-7.717529805E-3	-1.525626272E-1	1.527590069E-1
1.122588454E1	-4.313326534E-4	-7.608652823E-3	-1.585501760E-1	1.587332226E-1
1.123589454E1	-5.046576513E-3	4.757760605E-3	-1.581022793E-1	1.582543363E-1
1.124593454E1	-1.133760497E-2	-6.436752034E-3	-1.681320083E-1	1.686367258E-1
1.125597554E1	4.697232787E-3	5.306439567E-3	-1.627437991E-1	1.628980247E-1
1.126601554E1	1.606248412E-3	-4.388883524E-3	-1.530134475E-1	1.530848048E-1
1.127605554E1	-7.130441945E-3	-2.930030627E-3	-1.569047695E-1	1.570940323E-1
1.128606554E1	-5.466251280E-3	-1.011360914E-2	-1.652861685E-1	1.656854927E-1
1.129610554E1	-2.318995678E-2	-8.911659149E-3	-1.679799807E-1	1.698071426E-1
1.130614554E1	-1.224054297E-2	-8.860121425E-3	-1.733676052E-1	1.740248809E-1
1.131618654E1	-8.046499640E-3	-1.605195000E-2	-1.567521572E-1	1.577772165E-1
1.132619654E1	-1.524104169E-2	-9.866043516E-3	-1.512142593E-1	1.523002967E-1
1.133623654E1	-1.161006695E-2	-6.412029276E-3	-1.688769436E-1	1.693969594E-1
1.134627654E1	-1.478785506E-2	-5.820199689E-3	-1.766601723E-1	1.773735377E-1
1.135631654E1	-7.783046030E-3	-3.224766841E-3	-1.592962807E-1	1.595189017E-1
1.136635754E1	-9.770112634E-3	-8.356822338E-3	-1.584004873E-1	1.589213829E-1
1.137636654E1	-7.212074557E-3	-5.767053980E-3	-1.669333291E-1	1.671885442E-1
1.138640754E1	-4.482292794E-3	-1.439191634E-3	-1.537624758E-1	1.538345254E-1
1.139644754E1	-4.017320378E-3	-1.345517412E-2	-1.519656265E-1	1.526130145E-1
1.140648754E1	-8.225196032E-3	-1.482017920E-2	-1.664854324E-1	1.673460210E-1
1.141652854E1	2.174890134E-4	-9.934912752E-3	-1.775635672E-1	1.778414186E-1
1.142653754E1	-1.534775337E-3	-1.720186891E-3	-1.724741507E-1	1.724895569E-1
1.143657854E1	-8.119160431E-3	1.248526722E-3	-1.753211600E-1	1.755135001E-1
1.144661854E1	-1.582450245E-2	-6.770280870E-3	-1.616989017E-1	1.626123808E-1
1.145665854E1	-1.392981271E-2	-1.068392280E-2	-1.491232949E-1	1.501530652E-1
1.146669854E1	-1.588340401E-2	-2.072938448E-3	-1.675338382E-1	1.682978506E-1
1.147670854E1	-1.382064337E-2	-7.871832345E-3	-1.700791311E-1	1.708212129E-1
1.148674854E1	-8.842168646E-3	-1.051061681E-2	-1.573550051E-1	1.579533306E-1
1.149678954E1	-8.079627771E-3	-1.192738803E-2	-1.576549673E-1	1.583118179E-1
1.150682954E1	-5.319294306E-3	-1.273784867E-2	-1.609487039E-1	1.615395709E-1
1.151686954E1	-4.596276954E-3	-2.005718309E-2	-1.621444595E-1	1.634449207E-1
1.152687954E1	-3.911293913E-3	-5.617127717E-3	-1.581016946E-1	1.582497904E-1
1.153691954E1	-6.422362402E-3	-2.781675803E-3	-1.570538735E-1	1.572097441E-1
1.154696054E1	-1.397120917E-2	-6.307464615E-3	-1.509166360E-1	1.516931436E-1
1.155700054E1	-7.327493113E-3	-2.152460581E-3	-1.648382717E-1	1.650150935E-1
1.156701054E1	-6.466536289E-3	-5.312661370E-3	-1.738190103E-1	1.740203689E-1
1.157705054E1	-1.751158861E-3	-1.318090316E-4	-1.631911111E-1	1.632005596E-1
1.158709054E1	-2.801538063E-3	-6.272006733E-3	-1.643886209E-1	1.645320800E-1
1.159713154E1	-2.655385081E-3	-3.402330335E-3	-1.648376870E-1	1.648941781E-1
1.160717154E1	-6.382765789E-3	-1.175600979E-2	-1.748674160E-1	1.753783244E-1
1.161718154E1	-1.270187915E-2	-3.838770166E-3	-1.633407998E-1	1.638788906E-1
1.162722154E1	2.826699363E-3	-8.264043471E-3	-1.591512698E-1	1.593907504E-1
1.163726154E1	2.578804828E-4	-1.023032505E-2	-1.540612686E-1	1.544007789E-1
1.164730154E1	-7.334628543E-3	-7.266261801E-3	-1.587016189E-1	1.590371000E-1
1.165734254E1	-6.163248522E-3	-1.169387399E-2	-1.730711514E-1	1.735752164E-1
1.166735254E1	-1.688872310E-2	-1.196146633E-2	-1.715730947E-1	1.728167598E-1
1.167739254E1	-1.141067689E-2	8.867485262E-4	-1.557066751E-1	1.561267387E-1
1.168743254E1	-7.937668338E-3	-7.761621466E-3	-1.738195950E-1	1.741737665E-1
1.169747254E1	-6.532143876E-3	-6.559726289E-3	-1.670841873E-1	1.673404450E-1
1.170751354E1	-9.603805030E-3	-5.406289911E-3	-1.609457803E-1	1.613226743E-1
1.171752254E1	-6.164070787E-3	-1.223303296E-2	-1.512165982E-1	1.518357745E-1
1.172756354E1	-5.417472711E-3	-1.674700121E-2	-1.555564016E-1	1.565490503E-1
1.173760354E1	-1.042910297E-2	-3.336357297E-3	-1.687290090E-1	1.690839317E-1
1.174764354E1	-2.654928267E-3	-9.979936313E-3	-1.705246890E-1	1.708371076E-1
1.175768454E1	-7.468538918E-4	-1.560041704E-2	-1.607966763E-1	1.615534026E-1
1.176769354E1	-1.332675464E-2	-8.692151019E-3	-1.575035244E-1	1.583051360E-1
1.177773454E1	-7.086533010E-3	-5.692209620E-3	-1.679829043E-1	1.682286431E-1
1.178777454E1	-1.420142502E-3	-1.250408795E-3	-1.588524771E-1	1.588637460E-1
1.179781454E1	-5.343368389E-3	-1.761820894E-3	-1.742692459E-1	1.743600460E-1
1.180782454E1	-5.336223822E-3	-9.755850909E-3	-1.709755093E-1	1.713367348E-1
1.181786454E1	-4.054267472E-3	-9.597035050E-3	-1.657364041E-1	1.660635294E-1
1.182790454E1	-9.843376419E-3	-8.904551128E-3	-1.588489687E-1	1.594025657E-1
1.183794554E1	-7.900931379E-3	-1.564330271E-2	-1.551067507E-1	1.560936954E-1
1.184798554E1	-1.330497377E-2	-1.362937546E-2	-1.563030910E-1	1.574593232E-1
1.185799554E1	-1.177073747E-2	-1.277537134E-2	-1.570515347E-1	1.580093191E-1
1.186803554E1	-1.150167419E-2	-5.183474449E-3	-1.554061282E-1	1.559173550E-1
1.187807554E1	-1.849570242E-2	-4.117207266E-3	-1.566036379E-1	1.577458139E-1
1.188811654E1	-8.993437942E-3	-3.921965081E-3	-1.598979592E-1	1.601986926E-1
1.189815654E1	-1.109142805E-2	1.185705699E-4	-1.622929788E-1	1.626715857E-1
1.190816654E1	-1.030568104E-2	-3.097352358E-3	-1.593003738E-1	1.596634264E-1
1.191820654E1	-1.852708552E-3	-3.436655318E-3	-1.596003360E-1	1.596480829E-1
1.192824654E1	-9.787581190E-3	-1.142204242E-2	-1.633419693E-1	1.640331025E-1
1.193828754E1	-5.654467670E-3	-1.357153371E-2	-1.714251602E-1	1.720544829E-1
1.194832754E1	-4.897892782E-3	-9.175167577E-3	-1.657375735E-1	1.660635912E-1
1.195833754E1	2.352764262E-3	-1.202070594E-2	-1.581040335E-1	1.585777988E-1
1.196837754E1	-9.620314278E-4	-2.234925508E-2	-1.699294424E-1	1.713955370E-1
1.197837888E1	-1.510938797E-3	-2.050615788E-2	-1.790587002E-1	1.802354115E-1
1.198841888E1	-1.969853863E-3	-1.329289561E-2	-1.537601370E-1	1.543462378E-1
1.199845988E1	1.151444670E-4	-6.135254977E-3	-1.530111086E-1	1.531341046E-1
1.200846987E1	-1.513025522E-2	-3.941818206E-3	-1.561539871E-1	1.569347961E-1
1.201850988E1	-8.468458476E-3	-1.409130550E-2	-1.702258962E-1	1.710179389E-1
1.202854988E1	-1.274916851E-2	-1.003585031E-2	-1.699271035E-1	1.706999710E-1
1.203858987E1	-1.084576277E-2	-6.265154528E-3	-1.591506851E-1	1.596427991E-1
1.204863087E1	-1.893966140E-2	-4.512716588E-3	-1.515159756E-1	1.527617958E-1
1.205863988E1	-1.605755967E-2	-1.257190651E-2	-1.542097878E-1	1.555524244E-1
1.206868088E1	-1.304204092E-2	-5.113664176E-4	-1.690272170E-1	1.695303997E-1
1.207872087E1	-1.560717789E-2	-9.083978422E-3	-1.667813015E-1	1.677560884E-1
1.208876088E1	-1.041698827E-2	-8.318440849E-3	-1.622906399E-1	1.628372252E-1
1.209877088E1	-7.163113263E-3	-1.880135648E-3	-1.624414980E-1	1.626102253E-1
1.210881087E1	-7.246563993E-3	-1.010563318E-2	-1.705235195E-1	1.709763353E-1
1.211885187E1	2.733883951E-3	-1.295315411E-2	-1.679799807E-1	1.685008375E-1
1.212889188E1	-6.579908319E-3	-9.403793709E-3	-1.664836782E-1	1.668788232E-1
1.213893188E1	-4.295812296E-3	-1.079986213E-2	-1.509160513E-1	1.513629597E-1
1.214894187E1	-5.592350140E-3	-7.690477297E-3	-1.658849233E-1	1.661572316E-1
1.215898188E1	-1.133384996E-2	-5.391562236E-3	-1.706749624E-1	1.711358171E-1
1.216902188E1	-5.397254135E-3	-5.385084618E-3	-1.613942617E-1	1.615742467E-1
1.217906287E1	-1.297204792E-3	-7.694552075E-3	-1.527123159E-1	1.529115441E-1
1.218910287E1	-4.598798566E-3	-6.587884286E-3	-1.494179946E-1	1.496338407E-1
1.219911288E1	-8.698537275E-3	-7.661743714E-3	-1.646856594E-1	1.650931049E-1
1.220915288E1	-1.070924856E-2	3.207691144E-3	-1.585472524E-1	1.589408964E-1
1.221919287E1	-1.141064948E-2	1.871045055E-3	-1.687260854E-1	1.691218367E-1
1.222923388E1	-1.047774450E-2	-5.339969695E-3	-1.621415359E-1	1.625674508E-1
1.223927388E1	-7.415365800E-3	-7.428997122E-3	-1.696265566E-1	1.699510117E-1
1.224928387E1	-9.585194439E-3	-1.001431611E-2	-1.724694729E-1	1.730256673E-1
1.225932387E1	-2.592381332E-3	-1.354743222E-2	-1.500161648E-1	1.506489398E-1
1.226936388E1	1.786580198E-3	-1.240950010E-2	-1.518124294E-1	1.523292529E-1
1.227940488E1	2.434141058E-3	-8.662458127E-3	-1.624397439E-1	1.626887630E-1
1.228944487E1	-2.063637720E-3	-6.018328937E-3	-1.672291982E-1	1.673501826E-1
1.229945488E1	4.566309974E-5	-4.060379639E-3	-1.592962807E-1	1.593480274E-1
1.230949488E1	-5.138843749E-3	-6.632971801E-3	-1.612422341E-1	1.614604041E-1
1.231953487E1	-7.768309219E-3	-3.770321198E-3	-1.759111440E-1	1.761229472E-1
1.232957488E1	-1.524196445E-2	-1.686992979E-2	-1.817495888E-1	1.831661133E-1
1.233958488E1	-5.792873092E-3	-3.621189790E-3	-1.542074490E-1	1.543586982E-1
1.234962588E1	-8.779091807E-3	-6.793843322E-3	-1.474726260E-1	1.478898380E-1
1.235966587E1	-1.229510481E-2	-1.775595655E-2	-1.482216543E-1	1.497868566E-1
1.236970588E1	-7.883106507E-3	-9.482018491E-3	-1.660340273E-1	1.664912919E-1
1.237974588E1	-2.921990706E-3	-5.151808122E-3	-1.654341030E-1	1.655400906E-1
1.238975587E1	-4.179772474E-3	-2.595533347E-3	-1.639383852E-1	1.640121991E-1
1.239979587E1	-9.447273239E-4	-3.674947629E-3	-1.569024307E-1	1.569483052E-1
1.240983688E1	-3.222318320E-3	-8.022526056E-3	-1.540577602E-1	1.543001547E-1
1.241987688E1	-1.480154120E-2	4.802025855E-5	-1.682776040E-1	1.689273214E-1
1.242991687E1	-6.526890518E-3	-6.144336434E-3	-1.601955825E-1	1.604461836E-1
1.243992688E1	-9.123282675E-3	-4.710087525E-3	-1.655861306E-1	1.659041466E-1
1.244996688E1	-1.698752278E-2	-4.859922426E-3	-1.681314236E-1	1.690572991E-1
1.246000787E1	-2.379383711E-2	-7.008253410E-3	-1.688786978E-1	1.706905881E-1
1.247004787E1	-2.189543805E-2	-5.389780663E-3	-1.616924697E-1	1.632572041E-1
1.248008788E1	-1.693072256E-2	-1.494758455E-3	-1.657334805E-1	1.666027317E-1
1.249009788E1	-1.131916797E-2	-7.505842326E-3	-1.648353481E-1	1.653939335E-1
1.250013787E1	-8.625072492E-3	-6.116114482E-3	-1.606434792E-1	1.609910748E-1
1.251017788E1	-4.392876076E-3	-7.605747487E-3	-1.685746425E-1	1.688033023E-1
1.252021888E1	1.326495688E-3	-9.353891378E-3	-1.610896218E-1	1.613664188E-1
1.253025887E1	4.974993803E-3	-1.773744646E-2	-1.558499318E-1	1.569349191E-1
1.254026887E1	-4.743370973E-4	-6.431699675E-3	-1.601909047E-1	1.603206715E-1
1.255030888E1	-4.917855542E-3	-2.575881220E-3	-1.751609462E-1	1.752489017E-1
1.256034888E1	-9.723179592E-3	-2.205003295E-3	-1.700732839E-1	1.703652669E-1
1.257038987E1	-1.243998785E-2	-4.371159151E-4	-1.661825466E-1	1.666480818E-1
1.258039888E1	-8.708121227E-3	3.868024517E-3	-1.603452712E-1	1.606281389E-1
1.259043988E1	-1.329803933E-2	-1.033760319E-2	-1.572023928E-1	1.581021701E-1
1.260047987E1	-9.443070553E-3	-1.095972866E-2	-1.610937148E-1	1.617419927E-1
1.261051987E1	-1.076138014E-2	-1.147523381E-2	-1.603435171E-1	1.611134127E-1
1.262056088E1	-1.645771022E-2	-1.122484507E-2	-1.601938283E-1	1.614277424E-1
1.263056988E1	-1.779337873E-2	-1.032106653E-2	-1.658819997E-1	1.671525249E-1
1.264061087E1	-1.193168208E-2	1.650349209E-3	-1.622883010E-1	1.627346961E-1
1.265065088E1	-1.638042647E-4	-5.953671522E-3	-1.643839431E-1	1.644918046E-1
1.266069088E1	1.658809399E-3	-1.215282560E-2	-1.573479885E-1	1.578253221E-1
1.267073087E1	8.615141362E-4	2.011807635E-5	-1.595933193E-1	1.595956459E-1
1.268074087E1	3.798972555E-3	6.331520425E-3	-1.720186526E-1	1.721770518E-1
1.269078188E1	-2.801181749E-4	1.692257300E-3	-1.573497427E-1	1.573590916E-1
1.270082188E1	-4.688827414E-4	-1.460576911E-2	-1.554037893E-1	1.560893528E-1
1.271086187E1	-3.937779972E-3	-1.625691318E-2	-1.676782644E-1	1.685105151E-1
1.272090188E1	-1.120462650E-2	-1.542237846E-2	-1.545056570E-1	1.556772027E-1
1.273091188E1	-1.046378427E-2	-1.393297386E-2	-1.651318020E-1	1.660485789E-1
1.274095187E1	-1.243705510E-2	-9.943117127E-3	-1.709690773E-1	1.717089728E-1
1.275099287E1	-9.988442184E-3	-1.040393254E-2	-1.574970925E-1	1.581560778E-1
1.276103288E1	-6.065517794E-3	-7.839316344E-3	-1.636349148E-1	1.639348368E-1
1.277107288E1	-9.634639956E-3	-8.765204670E-3	-1.730653042E-1	1.735547597E-1
1.278108287E1	-4.261697447E-3	-1.227093936E-2	-1.681261611E-1	1.686272341E-1
1.279112288E1	-1.204954916E-2	-1.751927222E-2	-1.627391213E-1	1.641223268E-1
1.280116388E1	-9.781359388E-3	-1.273213849E-2	-1.579490823E-1	1.587630150E-1
1.281120387E1	-8.357781647E-3	-8.955266587E-3	-1.595950735E-1	1.600644770E-1
1.282124387E1	-1.524391048E-2	-3.657232393E-3	-1.519603640E-1	1.527668301E-1
1.283125388E1	-1.181545040E-2	-6.558127441E-3	-1.560025442E-1	1.565867417E-1
1.284129388E1	-8.332830481E-3	-8.129457012E-5	-1.649832827E-1	1.651936023E-1
1.285133487E1	-6.115730759E-3	-6.084320247E-3	-1.753118044E-1	1.755239297E-1
1.286137488E1	-9.844609816E-3	-4.444559980E-3	-1.652826601E-1	1.656352263E-1
1.287138488E1	-5.388474176E-3	-7.763019316E-3	-1.657311416E-1	1.660003356E-1
1.288142487E1	-7.809961494E-3	-8.243121402E-3	-1.666286892E-1	1.670151628E-1
1.289146487E1	-8.037838452E-3	-5.837914925E-3	-1.495647597E-1	1.498943143E-1
1.290150488E1	-8.495118124E-3	-6.176285986E-3	-1.446262014E-1	1.450070745E-1
1.291154588E1	-1.588358673E-2	-8.695860347E-3	-1.603458560E-1	1.613651134E-1
1.292155487E1	-1.420314264E-2	-1.081779663E-2	-1.741189724E-1	1.750319129E-1
1.293159588E1	-2.183112781E-3	-5.862528048E-3	-1.694792068E-1	1.695946248E-1
1.294163588E1	-3.975759465E-3	-1.225544424E-2	-1.558563638E-1	1.563880069E-1
1.295167587E1	-9.243497774E-3	-1.062434516E-2	-1.575023550E-1	1.581306763E-1
1.296171687E1	-1.066670093E-2	-2.107912106E-3	-1.670830178E-1	1.674364257E-1
1.297172588E1	-1.046468876E-2	-7.421423150E-3	-1.694780374E-1	1.699629147E-1
1.298173463E1	-8.808857789E-3	2.319425996E-3	-1.699282730E-1	1.701722470E-1
1.299177463E1	-8.994981973E-3	-1.589921890E-3	-1.482245779E-1	1.485057677E-1
1.300181462E1	-2.306185707E-2	-7.667536112E-3	-1.438841897E-1	1.459222410E-1
1.301185462E1	-1.711048789E-2	-1.079301906E-2	-1.684331399E-1	1.696436874E-1
1.302186463E1	-6.596262250E-3	-9.892949844E-3	-1.673841494E-1	1.678059433E-1
1.303190563E1	-3.934637094E-3	-1.096415975E-2	-1.494209182E-1	1.498742972E-1
1.304194562E1	4.896339616E-3	-1.833056426E-3	-1.684313858E-1	1.685125098E-1
1.305198563E1	1.545135872E-3	-6.716586985E-3	-1.777120864E-1	1.778456793E-1
1.306202563E1	-5.494043827E-3	-4.648664352E-3	-1.622953176E-1	1.624548083E-1
1.307203562E1	6.124812216E-3	-1.465817478E-2	-1.594512320E-1	1.602406652E-1
1.308207562E1	-3.876914112E-3	-1.681145763E-2	-1.590015811E-1	1.599348566E-1
1.309211663E1	-1.168905004E-2	-1.224561361E-2	-1.687319326E-1	1.695790495E-1
1.310215663E1	-1.222675634E-2	-5.236336933E-3	-1.666351211E-1	1.671651171E-1
1.311216662E1	-1.435554483E-2	-6.050707893E-3	-1.549594009E-1	1.557405171E-1
1.312220663E1	-1.542783282E-2	-3.165143514E-3	-1.598991287E-1	1.606728587E-1
1.313224663E1	-3.227014365E-3	7.879579905E-4	-1.564562881E-1	1.564915480E-1
1.314228762E1	-7.706529731E-3	-4.299265807E-3	-1.585507607E-1	1.587961524E-1
1.315232762E1	-1.206991391E-2	-4.240135839E-3	-1.705258584E-1	1.710050583E-1
1.316233763E1	-2.511698892E-3	-3.551726695E-3	-1.590004116E-1	1.590599079E-1
1.317237763E1	-1.036847466E-2	-7.965634475E-3	-1.627432144E-1	1.632676037E-1
1.318241762E1	2.867885688E-3	-5.944608338E-3	-1.651382339E-1	1.652700803E-1
1.319245863E1	-4.760254808E-3	-1.104624918E-2	-1.595979971E-1	1.600506180E-1
1.320249863E1	-2.364020152E-3	-1.349339115E-2	-1.512165982E-1	1.518358316E-1
1.321250863E1	-1.225770090E-2	-1.267461651E-2	-1.564574575E-1	1.574478744E-1
1.322254862E1	-4.974226356E-3	-1.926301243E-3	-1.631940347E-1	1.632811885E-1
1.323258863E1	-5.772480927E-3	6.092579439E-3	-1.688827908E-1	1.690912123E-1
1.324262863E1	-3.235438010E-3	1.029749494E-3	-1.679846585E-1	1.680189690E-1
1.325266962E1	-1.034990975E-2	-7.010966884E-3	-1.727741128E-1	1.732257728E-1
1.326267863E1	-9.584034132E-3	-1.172385011E-2	-1.590009964E-1	1.597204408E-1
1.327271963E1	-9.001989495E-3	-2.084303973E-3	-1.590015811E-1	1.592698431E-1
1.328275962E1	-4.991375143E-3	-5.649387902E-3	-1.669350833E-1	1.671052107E-1
1.329279962E1	-4.625787120E-3	-7.367692720E-3	-1.681308389E-1	1.683557536E-1
1.330284063E1	-9.241862381E-3	-3.222692907E-3	-1.610954690E-1	1.613925274E-1
1.331284963E1	-8.268383201E-3	-1.509257723E-3	-1.615445352E-1	1.617630392E-1
1.332289062E1	-1.438878260E-2	-1.633794280E-3	-1.588501382E-1	1.595088485E-1
1.333293063E1	-7.827009782E-3	-4.672436938E-3	-1.551085049E-1	1.553761309E-1
1.334297063E1	-1.553189498E-2	-1.356230607E-2	-1.697785842E-1	1.710261488E-1
1.335298063E1	-1.535942039E-2	-7.762562502E-3	-1.630420071E-1	1.639477516E-1
1.336302062E1	-1.201637534E-2	-7.111374540E-3	-1.646885830E-1	1.652794431E-1
1.337306163E1	-1.234473305E-2	-7.991681993E-4	-1.630420071E-1	1.635106332E-1
1.338310163E1	-1.762147972E-2	1.433362691E-3	-1.528637588E-1	1.538827470E-1
1.339314162E1	-1.620738544E-2	-7.169992877E-3	-1.537618911E-1	1.547798672E-1
1.340315162E1	-9.190863697E-3	-1.687964165E-2	-1.601967520E-1	1.613455720E-1
1.341319163E1	-1.561106080E-3	-4.344335049E-3	-1.696271414E-1	1.696899449E-1
1.342323162E1	-1.049117482E-2	-9.319794802E-3	-1.721730191E-1	1.727439487E-1
1.343327262E1	-1.015222818E-3	-6.515122997E-3	-1.723227078E-1	1.724488130E-1
1.344331263E1	8.821347076E-4	-3.909146888E-3	-1.470253140E-1	1.470799189E-1
1.345332263E1	-2.510337587E-3	-9.373653140E-3	-1.558587027E-1	1.561605019E-1
1.346336262E1	-6.243190924E-3	2.175812898E-3	-1.599002981E-1	1.600369237E-1
1.347340263E1	3.781650178E-3	-7.976963455E-3	-1.652902615E-1	1.655258390E-1
1.348344363E1	-1.840666942E-3	-9.375443850E-3	-1.721765274E-1	1.724414207E-1
1.349348363E1	-1.139275152E-2	-8.497895552E-3	-1.736734146E-1	1.742540213E-1
1.350349362E1	-8.942676801E-3	-1.169835077E-2	-1.667871487E-1	1.674358858E-1
1.351353363E1	-1.176428726E-2	-1.096529265E-2	-1.633448929E-1	1.641346707E-1
1.352357363E1	-1.106858737E-2	-1.098827038E-2	-1.669362527E-1	1.676632583E-1
1.353361462E1	-1.004289438E-2	-5.961108450E-3	-1.450828689E-1	1.455521673E-1
1.354365462E1	-7.237190176E-3	-1.232796798E-2	-1.548126358E-1	1.554712447E-1
1.355366463E1	-2.121954560E-3	-4.476189762E-3	-1.735231411E-1	1.735938348E-1
1.356370463E1	9.560471680E-4	-9.361026809E-5	-1.685816592E-1	1.685843961E-1
1.357374462E1	-7.495271657E-3	-7.341974108E-3	-1.640898281E-1	1.644249232E-1
1.358378463E1	-1.072143635E-2	-1.244270132E-2	-1.658849233E-1	1.666960642E-1
1.359382563E1	-5.930520203E-3	-2.933054734E-3	-1.649879605E-1	1.651205650E-1
1.360383462E1	1.989423763E-4	-4.457652261E-3	-1.756152749E-1	1.756719529E-1
1.361387562E1	-7.442272129E-3	-9.747911487E-3	-1.664866018E-1	1.669377063E-1
1.362391563E1	-1.029025901E-2	-9.170645121E-3	-1.522673428E-1	1.528899403E-1
1.363395563E1	-5.310907206E-3	-1.056775508E-2	-1.563089383E-1	1.567557570E-1
1.364396562E1	-1.218469293E-2	-1.693027488E-2	-1.660392898E-1	1.673443955E-1
1.365400563E1	-8.713767445E-3	-5.057814131E-3	-1.642424405E-1	1.645511789E-1
1.366404663E1	-2.641187310E-3	-1.780294441E-4	-1.694821304E-1	1.695028026E-1
1.367408662E1	-9.150563590E-3	-1.014082611E-2	-1.605008072E-1	1.610809681E-1
1.368412662E1	-1.500710738E-2	8.961725933E-3	-1.607990152E-1	1.617462490E-1
1.369413663E1	-1.165144513E-2	1.200924905E-2	-1.658896011E-1	1.667313348E-1
1.370417663E1	-1.139511782E-2	3.498096764E-4	-1.482275015E-1	1.486652726E-1
1.371421762E1	-5.435909713E-3	-5.519634532E-3	-1.590062588E-1	1.591948675E-1
1.372425763E1	-3.718929654E-3	-1.271976798E-2	-1.664895254E-1	1.670161220E-1
1.373429763E1	-1.231766227E-2	-1.776385029E-2	-1.607995999E-1	1.622460801E-1
1.374430762E1	-1.252017693E-2	-1.920506104E-2	-1.679852432E-1	1.695424169E-1
1.375434762E1	-5.877091270E-4	-1.518253298E-2	-1.679846585E-1	1.686703892E-1
1.376438763E1	-1.220334006E-2	-1.135511007E-3	-1.528660977E-1	1.533566259E-1
1.377442863E1	-4.750497267E-3	-6.111327074E-3	-1.576567215E-1	1.578466261E-1
1.378446862E1	-7.876857296E-3	-1.759509416E-2	-1.654399502E-1	1.665593268E-1
1.379447863E1	-4.736208133E-3	-1.306897466E-2	-1.706790555E-1	1.712441816E-1
1.380451863E1	-3.207362238E-3	-3.480043486E-3	-1.590027505E-1	1.590731673E-1
1.381455862E1	-1.970822308E-3	-1.139446914E-2	-1.429866421E-1	1.434534694E-1
1.382459962E1	4.557265062E-4	-1.489373535E-2	-1.630449307E-1	1.637244040E-1
1.383463963E1	1.290270360E-3	-7.319389237E-3	-1.720262539E-1	1.721867309E-1
1.384464963E1	-8.033178952E-3	-8.537464757E-3	-1.705287820E-1	1.709312311E-1
1.385468962E1	-1.842631241E-3	-3.286281377E-3	-1.693318570E-1	1.693737663E-1
1.386472963E1	-1.260182781E-2	-2.775581907E-3	-1.678343850E-1	1.683297084E-1
1.387477063E1	-1.169739146E-2	1.495516766E-4	-1.642412710E-1	1.646573607E-1
1.388477962E1	-7.721102089E-3	-4.433897948E-3	-1.676841116E-1	1.679203268E-1
1.389482062E1	-2.344291281E-2	-2.738799267E-3	-1.687319326E-1	1.703746938E-1
1.390486063E1	-1.320518738E-2	5.202286039E-3	-1.681337625E-1	1.687317482E-1
1.391490063E1	-1.482923325E-2	1.940535558E-3	-1.588524771E-1	1.595549476E-1
1.392494062E1	-1.178792280E-2	-9.228185378E-4	-1.575041091E-1	1.579473049E-1
1.393495063E1	-2.118181279E-3	-8.818450877E-3	-1.643880361E-1	1.646380217E-1
1.394499063E1	6.380408630E-4	-9.386909874E-3	-1.563060147E-1	1.565889249E-1
1.395503162E1	-7.749908762E-3	-1.456422647E-2	-1.616953933E-1	1.625348516E-1
1.396507162E1	5.294653773E-4	-1.553522972E-2	-1.625935256E-1	1.633348655E-1
1.397510138E1	-5.122654270E-3	-8.351505026E-3	-1.657369888E-1	1.660263192E-1
1.398511137E1	-1.247714507E-2	-1.063519905E-2	-1.675326687E-1	1.683329489E-1
1.399515137E1	-2.080311421E-3	-1.048421298E-2	-1.633407998E-1	1.636901442E-1
1.400519238E1	-1.456614509E-3	-8.083985774E-3	-1.585495913E-1	1.587622293E-1
1.401523238E1	-7.729443507E-3	-1.302184062E-3	-1.697756606E-1	1.699565089E-1
1.402527237E1	-1.255894214E-2	2.761448091E-3	-1.664819241E-1	1.669777939E-1
1.403528238E1	-5.509155225E-3	8.724749247E-3	-1.673800564E-1	1.676978095E-1
1.404532238E1	-3.207060741E-3	-8.557948284E-4	-1.618421584E-1	1.618761930E-1
1.405536337E1	-3.785158508E-3	-1.210848726E-3	-1.564533645E-1	1.565038301E-1
1.406540337E1	-5.311528472E-3	8.326526452E-4	-1.711234438E-1	1.712078815E-1
1.407544338E1	1.551841898E-3	-6.426702132E-3	-1.649867910E-1	1.651192052E-1
1.408545338E1	5.616268907E-3	-1.638599960E-3	-1.727706045E-1	1.728696308E-1
1.409549337E1	1.109481761E-3	-4.236225514E-3	-1.688781130E-1	1.689348798E-1
1.410553338E1	-1.126396660E-2	-7.144758487E-3	-1.715725100E-1	1.720902400E-1
1.411557438E1	-1.589327118E-2	-6.888403762E-3	-1.705252737E-1	1.714027863E-1
1.412558337E1	-1.887080130E-2	-1.257387081E-2	-1.636384231E-1	1.652021273E-1
1.413562437E1	-6.104785502E-3	-9.864947163E-3	-1.672315371E-1	1.676334471E-1
1.414566438E1	-2.146389526E-2	-9.299028050E-3	-1.684278774E-1	1.700444666E-1
1.415570438E1	-1.129576083E-2	-4.766394384E-3	-1.655826223E-1	1.660358923E-1
1.416574537E1	-8.638502816E-3	-8.122723578E-3	-1.706696999E-1	1.710811177E-1
1.417575438E1	-1.163088852E-2	-9.899107693E-3	-1.556996584E-1	1.564469671E-1
1.418579538E1	-3.247525301E-3	-5.700642401E-3	-1.458219570E-1	1.459694724E-1
1.419583537E1	-1.140312119E-2	-7.481009932E-3	-1.586963564E-1	1.592812928E-1
1.420587537E1	-6.080126697E-3	-2.105618902E-3	-1.682770193E-1	1.683999904E-1
1.421591638E1	-1.430986346E-2	4.944579145E-3	-1.805514944E-1	1.811851627E-1
1.422592538E1	-9.315455072E-3	4.425702710E-3	-1.789043337E-1	1.792013537E-1
1.423596637E1	-1.049006020E-2	1.301654158E-3	-1.681285000E-1	1.684604647E-1
1.424600638E1	-6.838830337E-3	-9.553674292E-3	-1.604943752E-1	1.609238540E-1
1.425604638E1	-1.291241546E-2	-8.536066907E-3	-1.495659292E-1	1.503647634E-1
1.426608637E1	-8.036321830E-3	-7.090114430E-4	-1.569006765E-1	1.571079484E-1
1.427609637E1	-4.218190508E-3	-6.973160980E-3	-1.648324245E-1	1.650337731E-1
1.428613638E1	3.088097312E-3	-2.289777872E-2	-1.742604750E-1	1.757855448E-1
1.429617738E1	-9.920075443E-4	-1.702919332E-2	-1.688705117E-1	1.697298654E-1
1.430621737E1	-2.867575055E-3	-1.456465588E-2	-1.691698891E-1	1.698199151E-1
1.431625738E1	-4.494708991E-3	-9.666744824E-3	-1.589904714E-1	1.593474768E-1
1.432626738E1	-6.558977114E-3	-2.326004114E-3	-1.688705117E-1	1.690138461E-1
1.433630737E1	-8.413531194E-3	-4.550266676E-3	-1.663263881E-1	1.666011999E-1
1.434634837E1	-2.136252830E-3	-1.042097169E-2	-1.639307839E-1	1.642755676E-1
1.435638838E1	-1.617363604E-2	-1.310796828E-2	-1.561487246E-1	1.575304082E-1
1.436642838E1	-1.592084446E-2	-7.198306192E-3	-1.610890371E-1	1.620338445E-1
1.437643837E1	-8.020114079E-3	-9.200109607E-3	-1.651294631E-1	1.655799016E-1
1.438647838E1	-4.937589895E-3	-2.943122908E-3	-1.706673610E-1	1.707641352E-1
1.439651938E1	-1.622695534E-2	-2.196680149E-3	-1.631823403E-1	1.640018770E-1
1.440655937E1	-1.664113007E-2	-1.206774862E-2	-1.619854152E-1	1.632845140E-1
1.441656937E1	-2.216715999E-3	-1.108124111E-2	-1.723151064E-1	1.726852733E-1
1.442660938E1	-1.350852082E-2	-9.216372175E-3	-1.717151821E-1	1.724921024E-1
1.443664938E1	-2.047547827E-2	-1.020087884E-2	-1.636314064E-1	1.652226991E-1
1.444668937E1	-1.191859894E-2	-1.070268871E-2	-1.663258034E-1	1.670954022E-1
1.445673038E1	-9.627303528E-3	6.603151001E-4	-1.691698891E-1	1.694448948E-1
1.446674038E1	-5.135134421E-3	1.376041705E-3	-1.723133522E-1	1.723953435E-1
1.447678038E1	-3.659927594E-3	-8.843036592E-3	-1.609364247E-1	1.612207405E-1
1.448682037E1	-6.549795158E-5	-4.520509830E-3	-1.643775111E-1	1.644396712E-1
1.449686038E1	-3.452497618E-3	-5.745994868E-3	-1.781477040E-1	1.782737800E-1
1.450690138E1	-1.428965402E-2	7.734861318E-4	-1.860782826E-1	1.866277572E-1
1.451691037E1	-6.961658411E-3	-4.275593720E-3	-1.760479689E-1	1.762374328E-1
1.452695138E1	-9.152993839E-4	-1.329642221E-2	-1.387760621E-1	1.394145905E-1
1.453699138E1	7.664237916E-3	-1.721143459E-2	-1.323394471E-1	1.336738691E-1
1.454703137E1	-1.004743511E-3	-1.959693412E-2	-1.323394471E-1	1.337863170E-1
1.455707237E1	-3.943033330E-3	-1.883808430E-2	-1.607808888E-1	1.619287347E-1
1.456708138E1	-1.844540723E-2	-2.833879561E-2	-1.732062221E-1	1.764758220E-1
1.457712238E1	-2.130708938E-2	-2.474714340E-2	-1.503067714E-1	1.538133242E-1
1.458716237E1	-2.727948113E-2	-2.408335651E-2	-1.561463857E-1	1.603305084E-1
1.459720238E1	-3.775906202E-2	-1.788606623E-2	-1.762081826E-1	1.810938479E-1
1.460724238E1	-3.679084534E-2	9.223662922E-3	-1.732161623E-1	1.773202784E-1
1.461725237E1	-3.651800877E-2	1.776967010E-2	-1.551049966E-1	1.603336711E-1
1.462729237E1	-2.201241891E-2	2.297447775E-2	-1.528596658E-1	1.561360004E-1
1.463733338E1	-5.924124811E-3	8.360065715E-3	-1.697715676E-1	1.700804842E-1
1.464737338E1	1.000370890E-2	1.227421015E-2	-1.696189553E-1	1.703564510E-1
1.465738337E1	2.642429844E-2	6.356709134E-3	-1.538981313E-1	1.562795127E-1
1.466742338E1	2.855405537E-2	5.904838135E-3	-1.540443116E-1	1.567796260E-1
1.467746338E1	2.687891945E-2	-4.190059919E-3	-1.848778492E-1	1.868685422E-1
1.468750438E1	2.772251735E-2	-6.753543215E-3	-2.055343080E-1	2.075054218E-1
1.469754437E1	3.028419167E-2	-4.440439520E-3	-2.020920521E-1	2.043967888E-1
1.470755438E1	1.260856125E-2	-1.846695970E-2	-1.643699098E-1	1.658839102E-1
1.471759438E1	-2.796366932E-3	-1.606459460E-2	-1.607779652E-1	1.616027381E-1
1.472763437E1	-2.039454916E-2	-9.733704580E-3	-1.387754774E-1	1.406033989E-1
1.473767537E1	-3.406871064E-2	2.528975587E-3	-1.133313185E-1	1.183683256E-1
1.474771538E1	-4.515580810E-2	3.015491338E-3	-1.197714418E-1	1.280364732E-1
1.475772538E1	-4.844466590E-2	8.898713049E-3	-1.077980983E-1	1.185179427E-1
1.476776537E1	-4.034246240E-2	-7.998223566E-3	-1.815928835E-1	1.861920008E-1
1.477780538E1	-3.550200024E-2	-3.757852924E-2	-2.231987464E-1	2.291074383E-1
1.478784538E1	-8.839820623E-3	-4.426962602E-2	-1.550821924E-1	1.615191277E-1
1.479788637E1	-3.070966797E-3	-5.295118810E-2	-1.291790271E-1	1.396441198E-1
1.480789637E1	2.308535557E-3	-4.267795910E-2	-1.790212780E-1	1.840525890E-1
1.481793638E1	8.991665505E-3	-1.123674050E-2	-1.930896789E-1	1.936252527E-1
1.482797638E1	1.484830979E-2	1.184744563E-2	-1.612089050E-1	1.623241982E-1
1.483801637E1	1.158309666E-2	8.211400257E-3	-1.719911706E-1	1.725762382E-1
1.484805738E1	8.306655055E-3	3.052557204E-3	-1.766361988E-1	1.768577545E-1
1.485806638E1	-7.926631719E-5	-2.604797529E-3	-1.767864722E-1	1.768056787E-1
1.486810737E1	-4.941883944E-3	-2.321609566E-3	-1.728922266E-1	1.729784209E-1
1.487814737E1	-9.407292902E-3	6.803728770E-3	-1.655533862E-1	1.659599698E-1
1.488818738E1	-1.745402095E-2	1.732075925E-2	-1.826085448E-1	1.842567019E-1
1.489822838E1	-1.476971042E-2	1.593792929E-2	-1.966699290E-1	1.978666797E-1
1.490823737E1	-8.410927355E-3	1.372019003E-2	-1.727133018E-1	1.734614422E-1
1.491827838E1	-4.088601591E-3	1.921535762E-2	-1.200211179E-1	1.216183184E-1
1.492831838E1	4.115526192E-3	1.237435285E-3	-5.760559916E-2	5.776568062E-2
1.493835837E1	2.844074730E-2	-1.336811456E-2	-3.411090195E-2	4.638034310E-2
1.494836837E1	2.272089131E-2	-2.670015911E-2	-1.332060045E-1	1.377424300E-1
1.495840838E1	8.504683804E-3	-1.424565372E-2	-2.418759227E-1	2.424442828E-1
1.496844838E1	-4.666142045E-3	1.988842696E-2	-2.734508872E-1	2.742128920E-1
1.497846954E1	-4.215378363E-2	4.413732363E-2	-2.885571688E-1	2.949411543E-1
1.498850954E1	-6.828396711E-2	6.332873507E-2	-2.930378902E-1	3.074807863E-1
1.499851954E1	-9.428806088E-2	7.614270718E-2	-2.014272237E-1	2.350763211E-1
1.500855954E1	-8.939217808E-2	4.418181729E-2	8.579619527E-3	1.000829873E-1
1.501859954E1	-4.284793035E-2	-2.748370428E-2	8.871395588E-3	5.167205043E-2
1.502864054E1	-8.134774324E-3	-9.795359815E-2	-1.047435129E-1	1.436394285E-1
1.503868054E1	4.273302343E-2	-1.534660586E-1	-1.758374691E-1	2.372693785E-1
1.504869054E1	8.819789342E-2	-1.601185637E-1	-1.774670881E-1	2.547771383E-1
1.505873054E1	9.005146078E-2	-1.176767225E-1	-2.645590264E-1	3.032302014E-1
1.506877054E1	4.778917476E-2	1.324481140E-2	-2.388008720E-1	2.438956472E-1
1.507881154E1	4.539427400E-2	4.023816269E-2	-3.119314134E-2	6.821115682E-2
1.508885154E1	-9.518335182E-3	2.196954237E-2	-9.766955137E-2	1.005614278E-1
1.509886154E1	-3.963684965E-2	-4.955186360E-3	-2.463227302E-1	2.495406202E-1
1.510890154E1	-5.513519623E-2	-1.837021569E-2	-1.595132124E-1	1.697699020E-1
1.511894154E1	-4.829334179E-2	-1.723704357E-2	-1.661053634E-1	1.738400249E-1
1.512898154E1	-4.107352881E-2	2.363182356E-2	-1.584718233E-1	1.654050079E-1
1.513902254E1	-1.932575122E-2	3.890338040E-2	-1.304771090E-1	1.375181211E-1
1.514903254E1	-2.050371850E-3	4.014616954E-2	-9.993008494E-2	1.077123058E-1
1.515907254E1	3.536509316E-2	1.632731731E-2	-1.276102191E-1	1.334227834E-1
1.516911254E1	5.674110660E-2	-2.796128475E-2	-1.460125762E-1	1.591259220E-1
1.517915254E1	5.421359282E-2	-3.539970137E-2	-1.952537334E-1	2.057091950E-1
1.518916254E1	3.629677389E-2	-1.899203053E-2	-2.814697587E-1	2.844351914E-1
1.519920254E1	-1.053613443E-2	3.269985004E-2	-2.865591753E-1	2.886112459E-1
1.520924354E1	-5.660610901E-2	7.753325729E-2	-2.132134563E-1	2.338282179E-1
1.521928354E1	-9.150032773E-2	9.914476734E-2	-1.328364605E-1	1.893344134E-1
1.522932354E1	-1.053839840E-1	5.968206421E-2	-1.171255767E-1	1.684818494E-1
1.523933354E1	-8.815679845E-2	-1.089613105E-2	-1.346409112E-1	1.613025783E-1
1.524937354E1	-5.868990135E-2	-7.280456831E-2	-1.298491180E-1	1.600181338E-1
1.525941454E1	-1.568943176E-2	-8.895219337E-2	-1.027513665E-1	1.368082391E-1
1.526945454E1	1.244229019E-2	-8.495683660E-2	-8.014135301E-2	1.174525910E-1
1.527949454E1	3.856571283E-2	-6.547900295E-2	-9.210884929E-2	1.194104441E-1
1.528950454E1	6.181534776E-2	-5.327721605E-2	-1.247304654E-1	1.490546476E-1
1.529954454E1	8.157173728E-2	-6.440403803E-2	-1.842978054E-1	2.115833394E-1
1.530958454E1	8.129348290E-2	-6.004371450E-2	-2.473190957E-1	2.671715051E-1
1.531962554E1	5.438412138E-2	-3.992445043E-2	-2.615494645E-1	2.701105640E-1
1.532966554E1	1.931435829E-2	1.772221629E-2	-2.129140788E-1	2.145216221E-1
1.533967554E1	-2.112006071E-2	7.400740452E-2	-1.814911419E-1	1.971349474E-1
1.534971554E1	-6.101331990E-2	9.823357014E-2	-1.599441522E-1	1.973691753E-1
1.535975554E1	-5.712914245E-2	8.207975068E-2	-1.208818281E-1	1.568860757E-1
1.536979654E1	-4.301126867E-2	2.544586740E-2	-1.045675117E-1	1.158957544E-1
1.537983654E1	-2.782350060E-2	-2.827485083E-2	-1.446811652E-1	1.500208450E-1
1.538984654E1	-3.237923076E-3	-6.136739622E-2	-1.547044623E-1	1.664629452E-1
1.539988654E1	2.408870123E-3	-6.743728115E-2	-1.455646795E-1	1.604452102E-1
1.540992654E1	-1.464401356E-2	-2.118946899E-2	-1.823775798E-1	1.841874652E-1
1.541996754E1	-3.130803913E-2	3.248619827E-2	-2.299698222E-1	2.343537188E-1
1.542997654E1	-4.141951952E-2	6.166287247E-2	-2.166469413E-1	2.290279101E-1
1.544001754E1	-4.927169060E-2	5.803703232E-2	-1.522883928E-1	1.702578961E-1
1.545005754E1	-4.452243587E-2	1.879712638E-2	-1.395753765E-1	1.477053316E-1
1.546009754E1	-2.780157354E-2	-4.309943371E-2	-1.442227435E-1	1.530708608E-1
1.547013754E1	-8.205891084E-3	-6.775574427E-2	-1.487163287E-1	1.636298382E-1
1.548014754E1	2.693459591E-2	-5.901716270E-2	-1.469183099E-1	1.606035110E-1
1.549018854E1	5.129654484E-2	-5.767893604E-2	-1.111403668E-1	1.353158391E-1
1.550022854E1	8.065374269E-2	-5.189170917E-2	-1.151755303E-1	1.498772113E-1
1.551026854E1	8.318460035E-2	-5.833284661E-2	-1.506459099E-1	1.817046750E-1
1.552030854E1	7.021064295E-2	-6.735455219E-2	-1.632197624E-1	1.900180542E-1
1.553031854E1	4.692888488E-2	-4.610584360E-2	-1.651733172E-1	1.777928395E-1
1.554035854E1	7.726638671E-3	-1.152674412E-2	-2.030556732E-1	2.035292933E-1
1.555039954E1	-4.097302979E-2	2.384209491E-2	-2.101039070E-1	2.153854368E-1
1.556043954E1	-6.595450949E-2	7.431394480E-2	-1.991871554E-1	2.225939859E-1
1.557047954E1	-7.489121117E-2	9.541265404E-2	-1.593775570E-1	2.002834835E-1
1.558048954E1	-6.539799160E-2	7.371081364E-2	-1.321418113E-1	1.648382226E-1
1.559052954E1	-5.674932011E-2	3.514165644E-2	-1.529508823E-1	1.668813763E-1
1.560057054E1	-4.236252923E-2	-1.098549295E-2	-1.441163242E-1	1.506146734E-1
1.561061054E1	-1.157268131E-2	-4.417725828E-2	-1.741955709E-1	1.800823535E-1
1.562065054E1	-5.487255575E-3	-4.265417738E-2	-2.077123958E-1	2.121177225E-1
1.563066054E1	-2.087102414E-2	-1.304088062E-2	-2.187770820E-1	2.201569345E-1
1.564070054E1	-4.504572513E-2	4.451205706E-2	-2.223625946E-1	2.312045935E-1
1.565074054E1	-7.743175328E-2	9.673086313E-2	-1.761111188E-1	2.153315176E-1
1.566078154E1	-7.846926861E-2	1.003297695E-1	-1.265723383E-1	1.795662708E-1
1.567082154E1	-5.684955418E-2	6.734027219E-2	-1.373581123E-1	1.631987595E-1
1.568083154E1	-2.385715149E-2	2.481311643E-3	-1.610112691E-1	1.627880504E-1
1.569087154E1	1.454851208E-2	-5.789663519E-2	-2.050115669E-1	2.135261626E-1
1.570091154E1	2.171076654E-2	-3.753685869E-2	-2.014073431E-1	2.060225498E-1
1.571095254E1	4.682418318E-2	-3.872292984E-2	-1.310396111E-1	1.444415075E-1
1.572096154E1	5.473351993E-2	-6.163946534E-2	-9.794495523E-2	1.280171713E-1
1.573100254E1	7.488985900E-2	-9.001350869E-2	-1.022765726E-1	1.554716052E-1
1.574104254E1	6.813370281E-2	-1.234153901E-1	-1.124542361E-1	1.803316811E-1
1.575108254E1	4.826122778E-2	-1.359337489E-1	-1.826646781E-1	2.327520458E-1
1.576112354E1	2.051780663E-2	-8.870889438E-2	-2.043794829E-1	2.237436510E-1
1.577113254E1	-7.828261452E-3	-2.815300033E-2	-1.910688812E-1	1.932904303E-1
1.578117354E1	-2.779615573E-2	3.900800901E-2	-1.478205353E-1	1.553871349E-1
1.579121354E1	-2.324593473E-2	7.163913600E-2	-1.379475117E-1	1.571688750E-1
1.580125354E1	-2.287696629E-2	7.255571446E-2	-1.244784504E-1	1.458854753E-1
1.581129354E1	-2.019190659E-2	6.020965666E-2	-1.327130842E-1	1.471247041E-1
1.582130354E1	-7.338986546E-3	3.392574621E-2	-1.837540144E-1	1.870036224E-1
1.583134454E1	-5.474775424E-3	8.977476871E-3	-2.056044745E-1	2.058731848E-1
1.584138454E1	-9.803496581E-3	2.118717578E-2	-1.783558649E-1	1.798772345E-1
1.585142454E1	-1.868169869E-2	2.186782823E-2	-1.344947308E-1	1.375355968E-1
1.586146454E1	-2.817587757E-2	1.781611891E-2	-1.256630963E-1	1.300096456E-1
