"Time (s)"	"Linear Acceleration x (m/s^2)"	"Linear Acceleration y (m/s^2)"	"Linear Acceleration z (m/s^2)"	"Absolute acceleration (m/s^2)"
1.627899166E-1	4.352265336E-3	-1.411019475E-2	-2.091285914E-1	2.096492489E-1
1.727999167E-1	2.973656338E-3	-1.155699433E-2	-2.065832984E-1	2.069276829E-1
1.828399167E-1	-2.760399703E-3	-4.808316180E-3	-1.944579273E-1	1.945369508E-1
1.928799166E-1	3.477352853E-3	-3.966353671E-3	-2.115218568E-1	2.115876174E-1
2.029209167E-1	-4.276678653E-3	-4.840411912E-3	-2.149652821E-1	2.150622981E-1
2.129609167E-1	-1.108587548E-2	3.946742658E-3	-2.152658290E-1	2.155872226E-1
2.230009167E-1	-1.005328461E-2	5.277130399E-3	-2.121217811E-1	2.124254379E-1
2.330109166E-1	-4.667658666E-3	1.006744812E-2	-2.059845436E-1	2.062832343E-1
2.430509167E-1	-6.663982600E-3	5.564178438E-3	-2.197559059E-1	2.199273219E-1
2.530909167E-1	-2.131952385E-2	9.437634470E-3	-2.054349053E-1	2.067536973E-1
2.631319166E-1	-1.068759559E-2	7.382598552E-3	-1.979422832E-1	1.983680290E-1
2.731719167E-1	-4.904167119E-3	2.961847703E-3	-1.934393424E-1	1.935241654E-1
2.831819167E-1	1.114385657E-3	-3.804056891E-3	-2.001770890E-1	2.002163321E-1
2.932219167E-1	8.977052034E-4	-4.310722696E-3	-2.048110074E-1	2.048583339E-1
3.032619166E-1	-5.654371739E-4	-3.873209353E-3	-2.066008401E-1	2.066379166E-1
3.133029167E-1	5.652030569E-3	-6.481944616E-3	-2.010500783E-1	2.012339311E-1
3.233429167E-1	6.693159293E-3	-7.670363788E-3	-1.983515882E-1	1.986126517E-1
3.333529166E-1	-2.764156996E-3	-1.118823602E-3	-2.091338539E-1	2.091551127E-1
3.433929167E-1	5.510948219E-3	3.712881440E-3	-1.986562282E-1	1.987673339E-1
3.534329167E-1	1.948922658E-3	6.048300485E-3	-1.970102370E-1	1.971126929E-1
3.634729167E-1	-2.906557254E-3	1.248698941E-2	-1.983609438E-1	1.987748400E-1
3.735139166E-1	-5.036944596E-3	5.521790693E-3	-2.031539065E-1	2.032913444E-1
3.835539167E-1	-8.766456340E-3	6.085814028E-3	-1.914793557E-1	1.917765146E-1
3.935639167E-1	-3.318283462E-3	7.598561808E-3	-2.042023122E-1	2.043705788E-1
4.036039166E-1	4.027162429E-3	-7.411208795E-3	-2.001613015E-1	2.003389395E-1
4.136439167E-1	2.378693009E-3	-7.783822613E-3	-1.913302517E-1	1.915032932E-1
4.236849167E-1	8.494907990E-4	-1.038459561E-2	-1.854877138E-1	1.857801212E-1
4.336898334E-1	4.058166377E-3	-1.381330694E-2	-2.061418337E-1	2.066439734E-1
4.436998334E-1	1.130883484E-3	-1.250896672E-2	-2.049390614E-1	2.053235789E-1
4.537398333E-1	2.958266283E-3	-4.255932458E-3	-1.833833009E-1	1.834565326E-1
4.637798333E-1	6.773971925E-3	-3.789059697E-3	-1.908665675E-1	1.910243185E-1
4.738208334E-1	4.009465466E-3	-1.485649589E-3	-1.986492115E-1	1.986952244E-1
4.838608333E-1	8.031559547E-3	7.090690015E-3	-2.052366847E-1	2.055161321E-1
4.938708333E-1	3.575803062E-3	4.553948594E-3	-1.986521351E-1	1.987364979E-1
5.039108334E-1	-8.070276794E-3	-4.393405979E-4	-1.830862623E-1	1.832645679E-1
5.139508334E-1	-1.140992087E-2	3.878430733E-3	-1.818910915E-1	1.822898727E-1
5.239908333E-1	4.022087229E-3	7.000807347E-4	-1.871325356E-1	1.871770637E-1
5.340318333E-1	-5.633632396E-3	-1.304872868E-2	-1.926710182E-1	1.931945351E-1
5.440718334E-1	-7.165863281E-3	-1.867052503E-2	-1.793487221E-1	1.804602511E-1
5.540818333E-1	-6.669877782E-3	-1.517949974E-2	-1.733600038E-1	1.741510707E-1
5.641218333E-1	-1.332765228E-2	-3.452890478E-3	-1.808403468E-1	1.813636673E-1
5.741618334E-1	-7.466983467E-3	-7.475948436E-3	-1.854783583E-1	1.857790813E-1
5.842028334E-1	5.171944471E-3	3.085319884E-4	-1.874248964E-1	1.874964959E-1
5.942428333E-1	-2.268728809E-3	-5.240292940E-4	-1.772466481E-1	1.772619417E-1
6.042528333E-1	2.907955104E-3	1.946341661E-3	-1.863776600E-1	1.864105056E-1
6.142928334E-1	9.472765729E-3	1.621853169E-3	-1.983562660E-1	1.985889523E-1
6.243328333E-1	-1.835961761E-3	-3.194402433E-3	-1.817454958E-1	1.817828380E-1
6.343738333E-1	4.957214613E-3	6.193256616E-3	-1.649844521E-1	1.651750582E-1
6.444138334E-1	3.444092246E-3	-3.740929803E-3	-1.887867129E-1	1.888551807E-1
6.544538334E-1	3.390112852E-3	-1.255904264E-2	-2.024083865E-1	2.028259779E-1
6.644638333E-1	7.710510863E-3	3.023645463E-3	-1.877377224E-1	1.879203204E-1
6.745038333E-1	2.974259332E-3	-6.394807398E-3	-1.696248025E-1	1.697713562E-1
6.845438334E-1	-1.303070281E-3	-2.690733327E-3	-1.805514944E-1	1.805762447E-1
6.945848333E-1	-9.950654553E-3	-4.040366630E-3	-1.907285732E-1	1.910307010E-1
7.046248333E-1	-3.451488060E-3	7.394557935E-3	-1.706708694E-1	1.708658477E-1
7.146348334E-1	2.278819825E-3	9.153012112E-3	-1.771074843E-1	1.773584835E-1
7.246748334E-1	-5.235770484E-4	9.643817344E-3	-1.887832046E-1	1.890300920E-1
7.347148333E-1	-4.941486516E-3	6.333767949E-3	-1.926768655E-1	1.928442620E-1
7.447558333E-1	-7.253884433E-3	3.740550647E-3	-1.715695864E-1	1.717635978E-1
7.547958334E-1	-8.018044713E-3	-3.336567432E-5	-1.751632851E-1	1.753467040E-1
7.648058333E-1	-3.431671481E-3	-1.233755194E-2	-1.739651906E-1	1.744358883E-1
7.748458333E-1	5.960610523E-3	-9.517302783E-3	-1.863905239E-1	1.867285070E-1
7.848858334E-1	1.045804212E-2	-5.182487732E-3	-1.847433633E-1	1.851116936E-1
7.949268334E-1	7.713107849E-3	-1.014132403E-2	-1.678279531E-1	1.683109038E-1
8.049668333E-1	8.982188904E-3	1.634063800E-3	-1.798018813E-1	1.800335147E-1
8.150068333E-1	-1.457071323E-3	5.607735626E-3	-1.895298940E-1	1.896184339E-1
8.250168334E-1	-4.125073599E-4	-6.542974929E-3	-1.838423073E-1	1.839591657E-1
8.350568333E-1	5.356755315E-3	6.339706527E-4	-1.592921877E-1	1.593834929E-1
8.450968333E-1	-4.499341082E-4	2.355011785E-3	-1.667783779E-1	1.667956110E-1
8.551378333E-1	1.050427167E-3	-4.319205726E-3	-1.835446841E-1	1.835985021E-1
8.651778334E-1	-1.061477491E-3	8.420264628E-4	-1.747130495E-1	1.747183030E-1
8.751878333E-1	-9.164345660E-4	2.689568452E-3	-1.639354616E-1	1.639600842E-1
8.852278333E-1	-2.781504497E-3	-2.943346747E-3	-1.549541384E-1	1.550070484E-1
8.952678334E-1	-1.341109159E-3	-7.393767647E-3	-1.655808681E-1	1.657512904E-1
9.053088333E-1	-1.069460311E-3	-7.506586933E-3	-1.826465517E-1	1.828038715E-1
9.153488333E-1	1.887086069E-3	7.709097024E-4	-1.772583425E-1	1.772700634E-1
9.253588333E-1	5.504975379E-3	-6.791627775E-3	-1.818981081E-1	1.821080797E-1
9.353988334E-1	3.616665050E-3	-1.668745555E-2	-1.712702090E-1	1.721192491E-1
9.454388333E-1	3.014392701E-3	-1.768659395E-3	-1.783049941E-1	1.783392431E-1
9.554798333E-1	4.774674133E-3	-1.334795994E-3	-1.774074465E-1	1.774767063E-1
9.655198334E-1	1.075819158E-3	9.928983310E-4	-1.823465896E-1	1.823524663E-1
9.755598333E-1	6.575719337E-4	-2.853386421E-3	-1.772577578E-1	1.772819419E-1
9.855698333E-1	-9.240222420E-4	5.607479811E-3	-1.585484219E-1	1.586502434E-1
9.956098334E-1	-7.777185109E-4	3.033151757E-3	-1.729179543E-1	1.729463032E-1
1.005649833E0	1.158630350E-3	-2.054177108E-3	-1.907303274E-1	1.907449078E-1
1.015690833E0	7.341010231E-3	8.004664639E-3	-1.673800564E-1	1.677320731E-1
1.025730833E0	5.058572441E-4	7.960541002E-3	-1.592974502E-1	1.594970336E-1
1.035740833E0	-4.996642205E-3	-3.877489697E-3	-1.811514187E-1	1.812617937E-1
1.045780833E0	-5.619185662E-3	-4.215956689E-3	-1.729185390E-1	1.730611761E-1
1.055820833E0	3.087827791E-3	7.170559326E-4	-1.685775661E-1	1.686073683E-1
1.065861833E0	3.900255009E-3	-8.067001440E-3	-1.679776418E-1	1.682164577E-1
1.075901833E0	1.575447747E-3	-1.074727373E-3	-1.667801321E-1	1.667910355E-1
1.085911833E0	3.496041102E-4	2.836881741E-3	-1.687260854E-1	1.687502949E-1
1.095951833E0	5.643481300E-3	1.402281085E-4	-1.854900527E-1	1.855759365E-1
1.105991833E0	2.241402213E-3	-1.974061118E-3	-1.670771706E-1	1.671038651E-1
1.116031833E0	2.722068464E-3	-1.283399882E-3	-1.525573647E-1	1.525870450E-1
1.126072833E0	-4.895014856E-3	1.462850017E-3	-1.637840188E-1	1.638636808E-1
1.136112833E0	4.621561593E-4	8.183520916E-3	-1.745616066E-1	1.747539359E-1
1.146122833E0	4.249288102E-3	2.098734719E-3	-1.667783779E-1	1.668457026E-1
1.156162833E0	-4.321350467E-3	4.347025682E-3	-1.739634365E-1	1.740713875E-1
1.166202833E0	2.993868061E-3	-1.988779656E-3	-1.688734353E-1	1.689116800E-1
1.176243833E0	-1.127795423E-3	-1.003962359E-3	-1.679758877E-1	1.679826738E-1
1.186283833E0	-5.185806483E-3	-7.830746518E-4	-1.759093899E-1	1.759875542E-1
1.196293833E0	1.948056996E-3	-4.861790794E-3	-1.714193130E-1	1.714993084E-1
1.206333833E0	5.534412456E-4	2.923151013E-3	-1.660305190E-1	1.660571719E-1
1.216373833E0	9.943448317E-3	-1.675327783E-3	-1.691733974E-1	1.694736478E-1
1.226414833E0	2.912607752E-3	1.546657062E-3	-1.723162758E-1	1.723478295E-1
1.236454833E0	-2.943330759E-3	2.225591890E-3	-1.772554189E-1	1.772938239E-1
1.246494833E0	3.196647672E-3	6.195029053E-3	-1.709679079E-1	1.711099719E-1
1.256504833E0	4.302376709E-3	1.267976937E-2	-1.588437063E-1	1.594070576E-1
1.266544833E0	-4.021925060E-3	1.239822137E-2	-1.643827736E-1	1.648987206E-1
1.276584833E0	2.534889041E-3	8.559802948E-3	-1.717157668E-1	1.719476678E-1
1.286625833E0	7.685689889E-3	1.284075052E-2	-1.711164272E-1	1.717695734E-1
1.296665833E0	1.326796729E-2	3.068294437E-3	-1.646803969E-1	1.652425082E-1
1.306675833E0	-3.452506755E-4	-1.843155207E-2	-1.712667006E-1	1.722559841E-1
1.316715833E0	2.798374628E-3	-1.698318304E-2	-1.756070888E-1	1.764486017E-1
1.326755833E0	-4.125941545E-4	-1.050790334E-3	-1.730617958E-1	1.730654777E-1
1.336796833E0	1.302234312E-3	-4.328574976E-3	-1.682705873E-1	1.683312892E-1
1.346836833E0	2.506934325E-3	-1.194795378E-2	-1.705147487E-1	1.709512148E-1
1.356846833E0	-2.632683723E-3	-5.077438848E-4	-1.622812843E-1	1.623034321E-1
1.366886833E0	-4.488489472E-3	4.896111209E-3	-1.622801149E-1	1.624159910E-1
1.376926833E0	-1.320959106E-3	-1.390298861E-3	-1.607832277E-1	1.607946646E-1
1.386967833E0	-1.590693905E-4	4.184057387E-3	-1.633291054E-1	1.633827662E-1
1.397007833E0	-6.824659975E-3	8.904423220E-3	-1.735085231E-1	1.738708496E-1
1.407047833E0	-1.040468628E-3	4.393241527E-3	-1.717116737E-1	1.717710163E-1
1.417057833E0	-4.060322538E-3	3.797803111E-3	-1.627303505E-1	1.628252944E-1
1.427097833E0	-4.784749160E-3	-1.047300277E-3	-1.607855666E-1	1.608601538E-1
1.437134542E0	2.428887701E-3	-1.481766673E-4	-1.524035829E-1	1.524230086E-1
1.447175542E0	-5.230882578E-4	-7.443692819E-3	-1.615334255E-1	1.617056886E-1
1.457215542E0	8.216900295E-3	-1.866189125E-2	-1.757538539E-1	1.769327579E-1
1.467225542E0	4.886945242E-3	-1.258973595E-2	-1.697663051E-1	1.703026190E-1
1.477265542E0	6.884027487E-3	1.816999423E-3	-1.606352931E-1	1.607929996E-1
1.487305542E0	2.331520140E-3	4.186560726E-3	-1.603359157E-1	1.604075096E-1
1.497346542E0	-2.110113949E-4	3.524112306E-3	-1.571918678E-1	1.572315083E-1
1.507386542E0	8.069733186E-3	5.393234175E-4	-1.640775490E-1	1.642767590E-1
1.517396542E0	9.044409217E-4	-1.522715455E-3	-1.639284450E-1	1.639380119E-1
1.527436542E0	4.010182663E-3	9.323106701E-3	-1.639284450E-1	1.642423117E-1
1.537476542E0	-4.811095891E-3	-5.842332314E-3	-1.616836989E-1	1.618607364E-1
1.547517542E0	-7.646214331E-3	-1.397293136E-2	-1.580917543E-1	1.588921338E-1
1.557557542E0	-4.644692356E-3	-5.083683492E-3	-1.696172011E-1	1.697569201E-1
1.567597542E0	-1.005990612E-3	-6.696153707E-3	-1.711140883E-1	1.712480123E-1
1.577607542E0	6.783147028E-3	-6.991214259E-3	-1.708135414E-1	1.710910696E-1
1.587647542E0	3.807923819E-3	-4.566090703E-3	-1.646763039E-1	1.647835991E-1
1.597687542E0	-5.984579539E-4	4.605970541E-3	-1.471633083E-1	1.472365865E-1
1.607728542E0	-4.849470528E-3	3.803115855E-3	-1.453658742E-1	1.454964550E-1
1.617768542E0	-6.845986324E-3	7.811066983E-3	-1.619824916E-1	1.623151499E-1
1.627778542E0	7.104138611E-4	1.103258588E-2	-1.664737380E-1	1.668404270E-1
1.637818542E0	-1.010781446E-2	3.526757257E-3	-1.675227284E-1	1.678644408E-1
1.647858542E0	-8.125893865E-3	1.006425042E-2	-1.601885659E-1	1.607099745E-1
1.657899542E0	4.222875133E-3	-3.414719123E-3	-1.633320290E-1	1.634222894E-1
1.667939542E0	3.705924167E-3	-2.206794005E-3	-1.696183705E-1	1.696732019E-1
1.677979542E0	-4.531212975E-3	-8.707175623E-3	-1.624333119E-1	1.627296151E-1
1.687989542E0	-6.806860229E-3	-1.592317421E-2	-1.477632326E-1	1.487745063E-1
1.698029542E0	-1.064124727E-4	-1.213803397E-2	-1.751556838E-1	1.755757863E-1
1.708069542E0	8.734463390E-3	-1.314450424E-2	-1.941649818E-1	1.948053105E-1
1.718110542E0	1.340280042E-3	-5.448271092E-3	-1.610837746E-1	1.611814581E-1
1.728150542E0	-4.798661422E-3	3.649050859E-3	-1.503061867E-1	1.504270337E-1
1.738160542E0	-1.953447398E-3	-9.052038006E-4	-1.622818691E-1	1.622961502E-1
1.748200542E0	8.522056430E-3	-3.833315810E-3	-1.640787184E-1	1.643445941E-1
1.758240542E0	6.111304234E-3	-3.404783425E-3	-1.676712477E-1	1.678171264E-1
1.768281542E0	8.937341217E-3	7.893183818E-3	-1.769519484E-1	1.773532364E-1
1.778321542E0	1.845056922E-3	8.279849226E-3	-1.565954518E-1	1.568250480E-1
1.788331542E0	-2.724772801E-3	4.318246418E-3	-1.567451406E-1	1.568282842E-1
1.798371542E0	1.882095379E-3	-5.856306246E-4	-1.565960366E-1	1.566084414E-1
1.808411542E0	-8.521494549E-4	-2.958407896E-3	-1.607879055E-1	1.608173774E-1
1.818452542E0	-1.270223090E-3	3.005948500E-3	-1.664766616E-1	1.665086425E-1
1.828492542E0	-2.577043811E-3	3.362199250E-3	-1.579449892E-1	1.580017884E-1
1.838532542E0	-3.711785087E-3	-3.065676894E-3	-1.667766237E-1	1.668460906E-1
1.848542542E0	-7.577527820E-3	-1.579661854E-3	-1.597406691E-1	1.599280952E-1
1.858582542E0	1.234883980E-3	-5.975566604E-3	-1.612363869E-1	1.613518044E-1
1.868622542E0	-3.299547248E-3	-1.775178127E-4	-1.690202004E-1	1.690524968E-1
1.878663542E0	2.895797007E-3	9.093484716E-3	-1.688710964E-1	1.691405460E-1
1.888703542E0	-1.740298115E-3	7.520474070E-3	-1.576444423E-1	1.578333183E-1
1.898713542E0	4.755602160E-3	-5.084880344E-3	-1.651282936E-1	1.652749985E-1
1.908753542E0	1.052068499E-2	-5.798994396E-3	-1.723121828E-1	1.727304301E-1
1.918793542E0	5.217520776E-3	-2.487944579E-3	-1.628823781E-1	1.629849118E-1
1.928834542E0	-2.837313430E-3	2.366418424E-3	-1.558475929E-1	1.558913805E-1
1.938874542E0	4.359327676E-4	7.591193402E-4	-1.539016396E-1	1.539041291E-1
1.948884542E0	2.103401071E-3	6.188163143E-3	-1.576444423E-1	1.577798715E-1
1.958924542E0	-8.870934206E-4	1.259266413E-3	-1.598897731E-1	1.598971927E-1
1.968964542E0	6.094954871E-3	6.344201574E-3	-1.615351796E-1	1.617745704E-1
1.979005542E0	-1.488493255E-3	4.628788386E-3	-1.754550612E-1	1.755224196E-1
1.989045542E0	-7.030858838E-3	3.958427953E-3	-1.603370851E-1	1.605399732E-1
1.999085542E0	-6.952158969E-3	1.204526424E-3	-1.549488759E-1	1.551094373E-1
2.009095542E0	-6.817216196E-3	2.728100689E-3	-1.507575917E-1	1.509363059E-1
2.019135542E0	-2.960235151E-3	-6.962142633E-3	-1.603376698E-1	1.605160515E-1
2.029175542E0	-3.834334505E-4	-4.224279835E-3	-1.595886415E-1	1.596450001E-1
2.039216542E0	-4.129075287E-3	-7.233855436E-3	-1.652762282E-1	1.654859799E-1
2.049256542E0	2.438540175E-3	-1.777160699E-3	-1.567433864E-1	1.567724273E-1
2.059266542E0	-1.842628957E-3	-2.077310155E-3	-1.589893019E-1	1.590135486E-1
2.069306542E0	-1.449385432E-3	-6.037263866E-3	-1.733588344E-1	1.734699822E-1
2.079346542E0	7.299038186E-3	-3.369288999E-3	-1.553961879E-1	1.556039951E-1
2.089387542E0	1.193018830E-2	3.236570908E-3	-1.556961501E-1	1.561860939E-1
2.099427542E0	-4.059886280E-4	-4.701435473E-4	-1.606358778E-1	1.606370789E-1
2.109467542E0	-7.198045808E-3	-3.230303423E-3	-1.699159938E-1	1.700990643E-1
2.119477542E0	-9.378956747E-4	-5.825393661E-3	-1.762029201E-1	1.763016843E-1
2.129517542E0	-3.081886929E-3	-4.788303170E-3	-1.512043190E-1	1.513115064E-1
2.139558542E0	1.227465326E-3	-3.342218217E-3	-1.471627235E-1	1.472057889E-1
2.149598542E0	-2.092206851E-6	2.972760983E-4	-1.555452919E-1	1.555455760E-1
2.159638542E0	-4.052122731E-3	-5.906135486E-3	-1.612340480E-1	1.613930617E-1
2.169648542E0	-2.854194981E-4	6.811873759E-3	-1.601856422E-1	1.603306679E-1
2.179688542E0	-2.870939488E-3	1.003236939E-2	-1.559937733E-1	1.563424064E-1
2.189728542E0	5.120635154E-3	7.259322801E-3	-1.464142799E-1	1.466835371E-1
2.199769542E0	8.115455671E-4	1.957305190E-3	-1.550956410E-1	1.551101142E-1
2.209809542E0	-8.486778990E-3	-5.823593815E-3	-1.666228420E-1	1.669404418E-1
2.219819542E0	-2.361048579E-3	-2.615317949E-3	-1.661737758E-1	1.662111254E-1
2.229859542E0	-3.497450373E-3	-2.427371079E-3	-1.510546303E-1	1.511146109E-1
2.239899542E0	-1.670430740E-3	-3.790964610E-3	-1.585390663E-1	1.585931818E-1
2.249940542E0	-4.572310222E-3	-1.722845090E-2	-1.658732289E-1	1.668282159E-1
2.259980542E0	-3.542528751E-3	-1.175459367E-2	-1.639255214E-1	1.643845995E-1
2.270020542E0	-7.066314435E-3	1.026149802E-3	-1.464107716E-1	1.465847872E-1
2.280030542E0	1.278852301E-3	-2.158380887E-3	-1.461113942E-1	1.461329312E-1
2.290070542E0	4.173500421E-3	-1.257302114E-3	-1.580864918E-1	1.581465707E-1
2.300111542E0	-5.065070617E-3	3.834206597E-3	-1.603318226E-1	1.604576250E-1
2.310151542E0	1.185787925E-3	-8.250604011E-4	-1.633255970E-1	1.633319854E-1
2.320191542E0	7.659797687E-3	-4.633365660E-3	-1.492554420E-1	1.495236689E-1
2.330201542E0	3.139509412E-3	-5.905998442E-3	-1.535969996E-1	1.537425629E-1
2.340241542E0	4.417840946E-3	-2.581404098E-3	-1.622795302E-1	1.623601764E-1
2.350281542E0	6.915241568E-3	-1.977546606E-3	-1.660211635E-1	1.661768876E-1
2.360322542E0	-1.603030160E-3	-2.962939488E-3	-1.672180885E-1	1.672520189E-1
2.370362542E0	-9.113479452E-4	-2.386349207E-4	-1.609311622E-1	1.609339196E-1
2.380372542E0	-4.625465067E-3	2.495893138E-3	-1.577876991E-1	1.578752115E-1
2.390412542E0	-5.932840817E-3	-5.017842930E-3	-1.586858314E-1	1.588759593E-1
2.400452542E0	-5.373346789E-3	-6.123016938E-3	-1.576385951E-1	1.578489495E-1
2.410493542E0	-9.078126638E-3	-7.222727453E-4	-1.624286342E-1	1.626837277E-1
2.420533542E0	-7.346638176E-3	2.778327358E-3	-1.657223707E-1	1.659083975E-1
2.430573542E0	-4.572591162E-4	-7.511424590E-3	-1.586870009E-1	1.588653355E-1
2.440561083E0	6.612780634E-3	-1.704970426E-2	-1.564422548E-1	1.575074613E-1
2.450601083E0	3.583093809E-3	-4.192677462E-3	-1.513522536E-1	1.514527047E-1
2.460641083E0	8.664614288E-4	-1.236270867E-2	-1.559920192E-1	1.564835371E-1
2.470682083E0	7.562505500E-4	-1.447372254E-2	-1.498547816E-1	1.505540306E-1
2.480722083E0	9.495261521E-4	-6.415523901E-3	-1.579373878E-1	1.580704875E-1
2.490732083E0	8.926254348E-3	2.758058533E-4	-1.586858314E-1	1.589369283E-1
2.500772083E0	-9.373063850E-4	-1.541435681E-3	-1.565901893E-1	1.566005810E-1
2.510812083E0	-1.520075072E-3	-1.982347718E-3	-1.642254835E-1	1.642444817E-1
2.520853083E0	8.394673923E-3	4.165748293E-3	-1.622789454E-1	1.625493160E-1
2.530893083E0	-2.305036364E-4	1.018442898E-2	-1.594354445E-1	1.597605605E-1
2.540933083E0	-7.165739941E-3	1.812042994E-3	-1.574894911E-1	1.576628401E-1
2.550943083E0	8.339637006E-4	-2.974935416E-3	-1.570410097E-1	1.570713992E-1
2.560983083E0	-1.233335382E-3	-4.255726892E-3	-1.622801149E-1	1.623405926E-1
2.571024083E0	-5.553425043E-3	-4.296552334E-3	-1.512019801E-1	1.513649222E-1
2.581064083E0	-1.055728262E-2	-1.123432852E-3	-1.571895289E-1	1.575476637E-1
2.591104083E0	-1.682901755E-3	-3.303124099E-3	-1.630279738E-1	1.630701169E-1
2.601114083E0	-4.179005027E-3	-1.327624018E-3	-1.588366896E-1	1.588972015E-1
2.611154083E0	7.276677154E-4	6.021015001E-3	-1.646745497E-1	1.647861931E-1
2.621194083E0	-2.740601397E-3	1.362350998E-3	-1.600347841E-1	1.600640466E-1
2.631235083E0	-2.269222168E-3	-1.160023632E-3	-1.606335390E-1	1.606537546E-1
2.641275083E0	5.452896331E-3	-5.069398927E-4	-1.660223329E-1	1.661126307E-1
2.651285083E0	-1.828214200E-3	2.222969779E-3	-1.652744740E-1	1.652995334E-1
2.661325083E0	-7.169572609E-3	-1.461356236E-3	-1.589863783E-1	1.591546632E-1
2.671365083E0	5.205253044E-3	4.092776868E-3	-1.577894533E-1	1.579283288E-1
2.681406083E0	-1.434310579E-3	-4.851877936E-3	-1.521018666E-1	1.521859908E-1
2.691446083E0	-1.762289128E-3	-4.622794990E-3	-1.531491029E-1	1.532289908E-1
2.701486083E0	-1.173659293E-2	-2.305333293E-3	-1.444665724E-1	1.449608662E-1
2.711496083E0	-5.115123696E-3	-2.201910666E-3	-1.541951698E-1	1.542957008E-1
2.721536083E0	-1.371158594E-2	-4.768737839E-3	-1.556926417E-1	1.563679863E-1
2.731577083E0	-1.011922567E-2	-1.800590674E-3	-1.585361427E-1	1.588689693E-1
2.741617083E0	-9.303125669E-4	3.331122212E-3	-1.582373500E-1	1.582751427E-1
2.751657083E0	-5.937947994E-3	4.481219281E-3	-1.633261818E-1	1.634955113E-1
2.761667083E0	-3.140980352E-3	1.023980394E-2	-1.627268422E-1	1.630789517E-1
2.771707083E0	2.042944059E-3	1.284199763E-2	-1.553920949E-1	1.559352227E-1
2.781747083E0	-2.305018092E-3	-2.551752320E-3	-1.532970375E-1	1.533356001E-1
2.791788083E0	-6.589014900E-3	5.476086480E-3	-1.594336903E-1	1.596637224E-1
2.801828083E0	-9.076169191E-3	-2.389958035E-3	-1.621280873E-1	1.623995241E-1
2.811838083E0	9.565270508E-3	-3.635186562E-4	-1.624268800E-1	1.627086903E-1
2.821878083E0	2.303391835E-3	2.406083560E-3	-1.523971510E-1	1.524335478E-1
2.831918083E0	-1.697382750E-2	9.452343872E-4	-1.497021693E-1	1.506643414E-1
2.841959083E0	-1.754563951E-2	-1.068701087E-2	-1.531444252E-1	1.545162665E-1
2.851999083E0	-6.538361111E-3	-8.700254895E-3	-1.516463685E-1	1.520363959E-1
2.862039083E0	-4.397387111E-3	-4.763521026E-3	-1.559879261E-1	1.561225840E-1
2.872049083E0	8.618754758E-3	2.386413161E-3	-1.574848133E-1	1.577385315E-1
2.882089083E0	6.636827309E-3	-4.896906065E-4	-1.594307667E-1	1.595695981E-1
2.892130083E0	-2.623748446E-3	9.597519273E-4	-1.538922840E-1	1.539176412E-1
2.902170083E0	4.570450990E-3	1.692540525E-4	-1.630238807E-1	1.630880233E-1
2.912210083E0	1.419793039E-3	-2.225674116E-3	-1.576350868E-1	1.576571915E-1
2.922220083E0	1.095252014E-3	-7.154657640E-3	-1.480561781E-1	1.482329942E-1
2.932260083E0	-1.619929983E-3	-7.273452049E-3	-1.594325209E-1	1.596065662E-1
2.942300083E0	4.836567824E-3	-1.600193803E-2	-1.669181263E-1	1.677531380E-1
2.952341083E0	-1.118053871E-3	-6.403989354E-3	-1.565896046E-1	1.567244888E-1
2.962381083E0	-1.015116608E-2	-4.148786799E-3	-1.574877369E-1	1.578690783E-1
2.972421083E0	-5.267519038E-5	-2.548828712E-3	-1.441660255E-1	1.441885648E-1
2.982431083E0	2.362697676E-3	-6.657237746E-4	-1.453629506E-1	1.453836749E-1
2.992471083E0	4.579358858E-3	-1.194988154E-3	-1.544933778E-1	1.545658510E-1
3.002512083E0	1.041697457E-3	4.918412855E-3	-1.604803419E-1	1.605590734E-1
3.012552083E0	7.264937041E-4	4.195176233E-3	-1.550915480E-1	1.551499776E-1
3.022592083E0	-6.202159915E-5	9.774580272E-4	-1.504517823E-1	1.504549703E-1
3.032602083E0	-9.714258020E-3	-6.313389488E-3	-1.489548951E-1	1.494047740E-1
3.042642083E0	-6.333178659E-3	-1.821174701E-2	-1.525468397E-1	1.537605775E-1
3.052683083E0	-4.141263077E-3	-6.497307261E-3	-1.513499147E-1	1.515459064E-1
3.062723083E0	-2.807867217E-3	-2.088460978E-4	-1.544922084E-1	1.545178636E-1
3.072763083E0	8.306106878E-4	-1.504082023E-3	-1.549401051E-1	1.549496316E-1
3.082773083E0	4.667594712E-3	-1.400737055E-3	-1.588314271E-1	1.589061696E-1
3.092813083E0	2.823056274E-3	-4.854582273E-3	-1.558376527E-1	1.559388041E-1
3.102853083E0	-1.101948903E-2	6.660622736E-3	-1.580829835E-1	1.586065027E-1
3.112894083E0	-1.040510655E-2	2.375545562E-3	-1.447612721E-1	1.451541779E-1
3.122934083E0	-6.520022324E-3	4.681582348E-3	-1.467078102E-1	1.469272251E-1
3.132974083E0	8.841766650E-4	2.952231774E-3	-1.582326722E-1	1.582626804E-1
3.142984083E0	-9.725461376E-3	9.168160055E-4	-1.507488209E-1	1.510649931E-1
3.153024083E0	-6.546085831E-3	-5.501234075E-3	-1.535940760E-1	1.538319050E-1
3.163065083E0	1.019260366E-2	3.674764903E-3	-1.583846998E-1	1.587548620E-1
3.173105083E0	1.005056428E-3	-5.213203887E-4	-1.588331813E-1	1.588372166E-1
3.183145083E0	-1.582281680E-3	7.727159439E-3	-1.473071498E-1	1.475181649E-1
3.193155083E0	3.511529372E-3	1.846377114E-3	-1.522468776E-1	1.522985610E-1
3.203195083E0	4.217989510E-4	2.141391984E-3	-1.571866053E-1	1.572017569E-1
3.213235083E0	1.139537820E-3	1.302334811E-3	-1.613773048E-1	1.613865829E-1
3.223276083E0	4.300081220E-3	-7.815854391E-4	-1.648201454E-1	1.648780819E-1
3.233316083E0	4.860395228E-3	-1.030384008E-2	-1.555400294E-1	1.559567033E-1
3.243326083E0	1.103661954E-4	-9.686195953E-3	-1.511973023E-1	1.515072896E-1
3.253366083E0	4.263460748E-3	-2.088022437E-3	-1.534426332E-1	1.535160532E-1
3.263406083E0	1.416405765E-3	3.930142047E-3	-1.543395960E-1	1.543961241E-1
3.273447083E0	2.856926727E-3	1.341100023E-3	-1.438613856E-1	1.438960001E-1
3.283487083E0	4.667674655E-3	-1.680170009E-3	-1.520948499E-1	1.521757324E-1
3.293527083E0	2.682289125E-3	7.525060480E-3	-1.571836817E-1	1.573865655E-1
3.303537083E0	1.909538463E-3	3.885383438E-3	-1.600265980E-1	1.600851480E-1
3.313577083E0	-6.075163416E-3	-5.900713108E-3	-1.640676087E-1	1.642860501E-1
3.323618083E0	-1.256193198E-2	5.206333408E-3	-1.514943409E-1	1.521033970E-1
3.333658083E0	5.995680112E-6	-3.533984050E-3	-1.443098670E-1	1.443531323E-1
3.343698083E0	-1.809959924E-3	-1.990216335E-2	-1.570339930E-1	1.583004960E-1
3.353708083E0	-1.903611305E-3	-4.595299372E-3	-1.428135645E-1	1.429001565E-1
3.363748083E0	3.110193391E-4	9.957534168E-4	-1.558370680E-1	1.558405596E-1
3.373788083E0	1.088413512E-3	-1.250517973E-2	-1.603277296E-1	1.608183604E-1
3.383829083E0	-9.273131280E-3	-1.072310829E-2	-1.630215418E-1	1.636367902E-1
3.393869083E0	-5.542559728E-3	-3.043256477E-3	-1.550874549E-1	1.552163009E-1
3.403879083E0	-8.057074877E-4	1.696048854E-3	-1.567340308E-1	1.567452780E-1
3.413919083E0	-5.595394804E-3	8.418939868E-4	-1.565843421E-1	1.566865451E-1
3.423959083E0	-1.544030383E-4	4.946205402E-3	-1.670637220E-1	1.671369977E-1
3.434000083E0	-4.138832828E-3	-2.658103122E-3	-1.517943031E-1	1.518739803E-1
3.444013458E0	-5.322083153E-3	7.476304751E-4	-1.600271827E-1	1.601174029E-1
3.454053458E0	-1.909266659E-3	5.664033350E-3	-1.532911903E-1	1.534076777E-1
3.464063458E0	-4.476000185E-3	2.482869378E-3	-1.441590089E-1	1.442498494E-1
3.474103458E0	-7.383416248E-3	-1.376297520E-3	-1.477515382E-1	1.479423065E-1
3.484144458E0	-2.980476567E-3	-2.423702865E-3	-1.505962086E-1	1.506451978E-1
3.494184458E0	-2.159285378E-3	1.139850738E-3	-1.486502552E-1	1.486703069E-1
3.504224458E0	-2.880831789E-3	-1.217303504E-3	-1.516440296E-1	1.516762761E-1
3.514234458E0	3.329553057E-3	-3.797615818E-3	-1.510452747E-1	1.511296888E-1
3.524274458E0	-7.381552448E-3	3.175229961E-3	-1.525415772E-1	1.527530759E-1
3.534314458E0	-5.251758965E-3	-8.529077657E-4	-1.502962464E-1	1.503903923E-1
3.544355458E0	-1.677915633E-3	1.037670644E-3	-1.510452747E-1	1.510581583E-1
3.554395458E0	-6.103223199E-3	1.974851405E-4	-1.502974159E-1	1.504214132E-1
3.564435458E0	-2.975842191E-3	-4.224604173E-3	-1.467048866E-1	1.467958673E-1
3.574445458E0	-7.209447878E-3	-8.048751731E-3	-1.519445765E-1	1.523283062E-1
3.584485458E0	-2.321075094E-3	-1.858710171E-2	-1.588308424E-1	1.599315611E-1
3.594526458E0	-6.134277396E-4	-1.023857054E-2	-1.628724378E-1	1.631950846E-1
3.604566458E0	-2.443827793E-3	-7.712290152E-3	-1.471551222E-1	1.473773446E-1
3.614606458E0	-6.907937117E-5	-6.839917554E-4	-1.516457838E-1	1.516473421E-1
3.624616458E0	2.644403279E-3	-7.149427123E-3	-1.633215040E-1	1.634992992E-1
3.634656458E0	1.472050245E-3	-4.976697718E-3	-1.553885865E-1	1.554752304E-1
3.644697458E0	-8.686582460E-3	6.278123469E-3	-1.434134889E-1	1.438134220E-1
3.654737458E0	-7.176427098E-3	-4.499944076E-3	-1.516463685E-1	1.518827564E-1
3.664777458E0	-1.605131503E-3	5.641558114E-4	-1.577830213E-1	1.577921942E-1
3.674787458E0	-3.746786155E-5	-1.781564383E-3	-1.535923219E-1	1.536026586E-1
3.684827458E0	3.157494168E-3	-2.868666840E-3	-1.473065650E-1	1.473683247E-1
3.694867458E0	-5.067025779E-3	-3.425691789E-4	-1.488034523E-1	1.488900920E-1
3.704908458E0	1.229776803E-3	-9.779751403E-3	-1.571860206E-1	1.574947649E-1
3.714948458E0	-4.582202523E-3	-1.574063145E-2	-1.519469154E-1	1.528287576E-1
3.724988458E0	3.593707876E-4	-1.753812949E-3	-1.564369923E-1	1.564472357E-1
3.734998458E0	1.267155586E-3	-9.699576027E-3	-1.520971888E-1	1.524114245E-1
3.745038458E0	-6.136152616E-3	2.443862054E-3	-1.537437648E-1	1.538855745E-1
3.755079458E0	-7.431336008E-3	9.892036216E-3	-1.645213526E-1	1.649859164E-1
3.765119458E0	-9.947883978E-3	4.633210343E-3	-1.486555177E-1	1.490600214E-1
3.775159458E0	-3.925870839E-3	1.925657135E-3	-1.488052064E-1	1.488694397E-1
3.785169458E0	1.073109796E-2	3.403481506E-3	-1.537443495E-1	1.541559767E-1
3.795209458E0	4.442330729E-4	5.572670605E-3	-1.565890199E-1	1.566887780E-1
3.805250458E0	9.375416441E-5	-6.113803005E-3	-1.482076210E-1	1.483336991E-1
3.815290458E0	9.217406858E-3	-1.299672957E-2	-1.541951698E-1	1.550162119E-1
3.825330458E0	3.057810562E-3	-8.834928148E-3	-1.532976222E-1	1.535824441E-1
3.835340458E0	6.071077217E-4	-4.183819843E-3	-1.526988673E-1	1.527573796E-1
3.845380458E0	9.691485856E-4	1.611309908E-3	-1.501541591E-1	1.501659317E-1
3.855420458E0	4.835144849E-5	3.565901625E-3	-1.461125636E-1	1.461560783E-1
3.865461458E0	-3.069973227E-3	6.357673011E-3	-1.579385573E-1	1.580962764E-1
3.875501458E0	-4.607194802E-5	7.662543138E-3	-1.630273890E-1	1.632073720E-1
3.885541458E0	6.997790092E-3	1.299011948E-2	-1.512019801E-1	1.519202128E-1
3.895551458E0	-5.548454910E-3	6.110523082E-3	-1.465627992E-1	1.467950202E-1
3.905591458E0	-5.237097528E-3	3.082364299E-3	-1.580882460E-1	1.582049989E-1
3.915632458E0	-1.287889447E-2	1.190296677E-3	-1.597354066E-1	1.602581756E-1
3.925672458E0	-4.403330258E-3	-7.905659401E-3	-1.631782472E-1	1.634289727E-1
3.935712458E0	-8.498761214E-3	-4.524022727E-3	-1.565907741E-1	1.568864757E-1
3.945722458E0	-1.039446507E-2	-7.053701808E-3	-1.528485560E-1	1.533638833E-1
3.955762458E0	-2.070307201E-3	-1.163997911E-3	-1.486572719E-1	1.486762440E-1
3.965802458E0	-9.045893862E-4	-8.678295859E-3	-1.528479713E-1	1.530968107E-1
3.975843458E0	6.118362006E-3	-5.343281594E-3	-1.622777760E-1	1.624809576E-1
3.985883458E0	-4.906793798E-3	7.763640583E-4	-1.594336903E-1	1.595110685E-1
3.995893458E0	-1.291065216E-3	2.426708699E-3	-1.488057911E-1	1.488311770E-1
4.005933458E0	-2.486117324E-3	7.457346981E-3	-1.398244679E-1	1.400452592E-1
4.015973458E0	-1.195616273E-3	1.313376912E-2	-1.512002259E-1	1.517742854E-1
4.026014458E0	1.619030060E-3	3.126908205E-3	-1.552418214E-1	1.552817501E-1
4.036054458E0	1.381379573E-3	-3.259078120E-3	-1.562902272E-1	1.563303071E-1
4.046094458E0	1.271997811E-5	-2.368592857E-3	-1.538952076E-1	1.539134345E-1
4.056104458E0	-1.463538435E-2	-1.520792269E-3	-1.576368409E-1	1.583220797E-1
4.066144458E0	-1.407146836E-2	3.199587269E-3	-1.573374635E-1	1.579978513E-1
4.076185458E0	-9.175295485E-3	4.739684486E-3	-1.616778517E-1	1.620073405E-1
4.086225458E0	-1.032036989E-2	-1.462109978E-3	-1.637729090E-1	1.641042764E-1
4.096265458E0	6.020571892E-3	-3.039693329E-3	-1.565872657E-1	1.567324434E-1
4.106275458E0	1.545608675E-3	2.067694226E-3	-1.467078102E-1	1.467305211E-1
4.116315458E0	-4.431607027E-3	3.918301435E-3	-1.497021693E-1	1.498189965E-1
4.126355458E0	8.665824845E-4	-5.219750027E-3	-1.552400672E-1	1.553302135E-1
4.136396458E0	-1.999736333E-3	1.191085594E-2	-1.541928309E-1	1.546651109E-1
4.146436458E0	3.830474429E-4	5.881828428E-3	-1.603312379E-1	1.604395477E-1
4.156476458E0	-1.259154493E-3	1.730958559E-4	-1.561399537E-1	1.561451267E-1
4.166486458E0	8.357891282E-3	-1.199821243E-4	-1.568889821E-1	1.571114936E-1
4.176526458E0	3.575741393E-3	-1.186590090E-2	-1.652709657E-1	1.657349620E-1
4.186567458E0	1.938699167E-3	-1.346754463E-2	-1.455126393E-1	1.461473965E-1
4.196607458E0	-5.897079154E-3	-7.185350955E-3	-1.497039235E-1	1.499922315E-1
4.206647458E0	-6.846975326E-4	-8.186832815E-3	-1.506020558E-1	1.508259668E-1
4.216657458E0	2.762987553E-3	-1.255424609E-2	-1.468598378E-1	1.474213524E-1
4.226697458E0	3.300869723E-3	-1.013998557E-2	-1.532964528E-1	1.536669043E-1
4.236738458E0	-7.260140497E-4	-1.866275920E-3	-1.579362184E-1	1.579489131E-1
4.246778458E0	3.593525151E-5	1.504237340E-3	-1.540437269E-1	1.540510754E-1
4.256818458E0	-5.452777559E-3	6.679996205E-3	-1.480555934E-1	1.483064862E-1
4.266828458E0	-5.347260442E-3	-1.428657509E-3	-1.526953590E-1	1.527956377E-1
4.276868458E0	7.793516200E-4	2.552588289E-3	-1.519475001E-1	1.519709376E-1
4.286908458E0	-6.351997100E-3	-1.473571435E-3	-1.497033387E-1	1.498452832E-1
4.296949458E0	-2.937997459E-4	-5.262594586E-3	-1.529959059E-1	1.530866697E-1
4.306989458E0	-4.345689502E-3	-4.111177325E-3	-1.561393690E-1	1.562539259E-1
4.317029458E0	-7.472764445E-4	-2.755820146E-4	-1.571866053E-1	1.571886232E-1
4.327039458E0	1.212511528E-3	-7.705949578E-3	-1.540425575E-1	1.542399473E-1
4.337079458E0	-6.680439315E-3	-5.647779917E-3	-1.339842689E-1	1.342695423E-1
4.347120458E0	-6.059174936E-3	9.741232870E-4	-1.474568385E-1	1.475844902E-1
4.357160458E0	4.461037251E-3	3.906067964E-3	-1.630232960E-1	1.631310922E-1
4.367200458E0	-6.377599225E-4	1.512114636E-2	-1.459581971E-1	1.467407616E-1
4.377210458E0	-5.381882354E-3	-2.519007912E-4	-1.449092066E-1	1.450093317E-1
4.387250458E0	-6.864158374E-3	3.845777689E-4	-1.571842664E-1	1.573345423E-1
4.397291458E0	5.306236285E-3	5.721477675E-3	-1.595787013E-1	1.597693755E-1
4.407331458E0	3.223805248E-3	1.089279174E-2	-1.586817384E-1	1.590878371E-1
4.417371458E0	3.784062155E-3	9.417123534E-4	-1.627221644E-1	1.627688813E-1
4.427381458E0	5.586610276E-3	-4.108217172E-4	-1.534408790E-1	1.535430960E-1
4.437405042E0	-1.838727768E-3	3.393075289E-3	-1.468539906E-1	1.469046916E-1
4.447445042E0	7.810738077E-4	1.984759695E-3	-1.529906434E-1	1.530055107E-1
4.457486042E0	1.762136095E-4	-1.210057982E-2	-1.550862855E-1	1.555577418E-1
4.467526042E0	4.428100982E-4	-5.062729446E-3	-1.492478406E-1	1.493343405E-1
4.477566042E0	5.357860804E-3	-1.258826044E-2	-1.465534437E-1	1.471906343E-1
4.487576042E0	-1.370236516E-2	-6.801207159E-3	-1.499956995E-1	1.507737414E-1
4.497616042E0	-1.217448314E-2	3.119357075E-3	-1.490975672E-1	1.496263111E-1
4.507657042E0	1.323720545E-3	-9.082004987E-4	-1.535888135E-1	1.535972028E-1
4.517697042E0	-1.426119909E-3	-2.383014467E-4	-1.627204102E-1	1.627268340E-1
4.527737042E0	-1.226999604E-2	3.128237533E-3	-1.498460108E-1	1.503800706E-1
4.537747042E0	-9.714831321E-3	7.765157204E-3	-1.507435584E-1	1.512557305E-1
4.547787042E0	-3.887034820E-3	1.156137060E-2	-1.502933228E-1	1.507874571E-1
4.557827042E0	-6.299079799E-3	5.620631478E-3	-1.441566700E-1	1.444036544E-1
4.567868042E0	-6.727705831E-3	-6.551558459E-3	-1.537361634E-1	1.540227025E-1
4.577908042E0	2.143886187E-3	-1.056766828E-2	-1.636150342E-1	1.639699707E-1
4.587918042E0	2.910168367E-3	-6.784876068E-3	-1.540355408E-1	1.542123583E-1
4.597958042E0	-7.356939325E-4	-9.880154491E-3	-1.511914551E-1	1.515157246E-1
4.607998042E0	1.322991927E-3	-8.565704981E-3	-1.452044910E-1	1.454629362E-1
4.618039042E0	-3.990946237E-3	-7.973409444E-3	-1.558323902E-1	1.560872728E-1
4.628079042E0	-1.251597881E-2	8.269607462E-4	-1.504435962E-1	1.509655896E-1
4.638119042E0	-5.366862318E-3	5.292703179E-3	-1.550839466E-1	1.552670165E-1
4.648129042E0	-4.001969153E-3	7.375024580E-3	-1.586758912E-1	1.588975934E-1
4.658169042E0	-1.669574215E-3	1.200822122E-2	-1.579268628E-1	1.583915366E-1
4.668210042E0	-1.211428880E-2	1.398156057E-2	-1.558318055E-1	1.569260706E-1
4.678250042E0	-3.937510452E-3	9.157292456E-3	-1.538858521E-1	1.542083508E-1
4.688290042E0	7.553657019E-3	6.188820954E-4	-1.531374085E-1	1.533248402E-1
4.698300042E0	-9.371259436E-3	-7.012538323E-3	-1.481976807E-1	1.486591698E-1
4.708340042E0	1.146236993E-3	-5.476027094E-3	-1.535864747E-1	1.536883403E-1
4.718380042E0	3.007181897E-3	-1.037319811E-2	-1.591255420E-1	1.594916440E-1
4.728421042E0	2.017442433E-3	-1.020812390E-2	-1.449056983E-1	1.452788259E-1
4.738461042E0	-1.393094561E-3	-1.170511161E-2	-1.481982654E-1	1.486663251E-1
4.748471042E0	1.074604033E-3	2.490685461E-4	-1.496951526E-1	1.496992169E-1
4.758511042E0	-7.027583483E-3	6.763501754E-3	-1.450542176E-1	1.453817661E-1
4.768551042E0	-6.561740837E-3	6.435993724E-3	-1.597248816E-1	1.599891130E-1
4.778592042E0	8.014723677E-3	7.106596269E-3	-1.573304468E-1	1.576946702E-1
4.788632042E0	-2.103072165E-3	1.246316201E-2	-1.622695899E-1	1.627610922E-1
4.798672042E0	-1.303123043E-2	1.087354161E-2	-1.474509913E-1	1.484245320E-1
4.808682042E0	-7.070782073E-3	9.413514705E-4	-1.511937940E-1	1.513619683E-1
4.818722042E0	2.094749019E-3	-4.616006739E-3	-1.435596693E-1	1.436491355E-1
4.828763042E0	-8.786199829E-3	-1.379046169E-2	-1.619707972E-1	1.627940824E-1
4.838803042E0	-6.861454037E-3	-1.276736797E-2	-1.624198633E-1	1.630653159E-1
4.848843042E0	-3.533401613E-3	-1.279358908E-2	-1.594272584E-1	1.599787847E-1
4.858853042E0	-7.733294447E-3	-1.043037748E-2	-1.514931715E-1	1.520486028E-1
4.868893042E0	-9.659714461E-3	-4.565487709E-3	-1.508950013E-1	1.512727840E-1
4.878933042E0	-1.226432013E-2	-5.233299122E-3	-1.465546131E-1	1.471599660E-1
4.888974042E0	-7.929550759E-3	1.930714063E-3	-1.559844178E-1	1.561977722E-1
4.899014042E0	-1.706850214E-3	2.229063674E-3	-1.517931336E-1	1.518190946E-1
4.909054042E0	1.258688543E-3	-1.170265395E-2	-1.489484632E-1	1.494127876E-1
4.919064042E0	-2.831907040E-3	4.050293192E-4	-1.547874928E-1	1.548139259E-1
4.929104042E0	3.896637044E-3	8.114665383E-3	-1.490993214E-1	1.493708111E-1
4.939145042E0	-6.275981013E-4	2.290783776E-4	-1.553874171E-1	1.553888533E-1
4.949185042E0	-3.940726421E-4	-6.419831654E-3	-1.561364454E-1	1.562688680E-1
4.959225042E0	-1.068611094E-2	-5.524097602E-3	-1.580823988E-1	1.585394381E-1
4.969235042E0	-1.695840090E-2	-7.670468856E-3	-1.553880018E-1	1.564987366E-1
4.979275042E0	-8.754631716E-3	-3.673951775E-3	-1.546389735E-1	1.549301572E-1
4.989316042E0	-3.678277801E-3	-2.387710512E-3	-1.552383131E-1	1.553002406E-1
4.999356042E0	-2.342702940E-3	3.275212781E-3	-1.529941517E-1	1.530471357E-1
5.009396042E0	-1.259815503E-2	4.068396720E-3	-1.504494435E-1	1.510307929E-1
5.019406042E0	-5.591452501E-3	5.380936749E-3	-1.565872657E-1	1.567794330E-1
5.029446042E0	-4.053511445E-3	2.655745964E-3	-1.544922084E-1	1.545681933E-1
5.039486042E0	3.786389621E-3	4.058826473E-3	-1.538940382E-1	1.539941097E-1
5.049527042E0	-3.830664007E-3	4.670189414E-3	-1.549424440E-1	1.550601354E-1
5.059567042E0	-5.979396987E-3	-4.405639451E-3	-1.456617433E-1	1.458509729E-1
5.069607042E0	-4.441978983E-3	-3.965083729E-3	-1.540454811E-1	1.541605115E-1
5.079617042E0	1.113718709E-3	-2.551286370E-3	-1.561417079E-1	1.561665213E-1
5.089657042E0	-2.458228846E-3	-6.041110237E-3	-1.574883217E-1	1.576233148E-1
5.099698042E0	1.728772705E-3	-1.335862654E-2	-1.537466884E-1	1.543356269E-1
5.109738042E0	-9.785728811E-3	-3.506273730E-4	-1.410225624E-1	1.413621114E-1
5.119778042E0	-9.226584246E-3	-9.328821441E-4	-1.541951698E-1	1.544737859E-1
5.129788042E0	-8.706216314E-3	-3.020804082E-3	-1.470101112E-1	1.472986635E-1
5.139828042E0	-6.626871054E-3	8.320542192E-4	-1.476082814E-1	1.477593058E-1
5.149869042E0	-8.078933414E-3	5.741824158E-3	-1.366810048E-1	1.370399021E-1
5.159909042E0	-1.028722577E-2	4.868889679E-3	-1.474591774E-1	1.478977420E-1
5.169949042E0	1.649417309E-4	5.175617253E-3	-1.648236537E-1	1.649049758E-1
5.179959042E0	-2.404514404E-3	-8.160922341E-3	-1.684155983E-1	1.686303534E-1
5.189999042E0	-4.482756460E-3	-7.185287001E-3	-1.446150917E-1	1.448628600E-1
5.200039042E0	1.682687053E-3	4.575277227E-3	-1.368312782E-1	1.369180897E-1
5.210080042E0	-2.814726275E-4	1.010129345E-2	-1.559920192E-1	1.563189861E-1
5.220120042E0	-4.001939460E-3	-5.624518963E-4	-1.663217103E-1	1.663708003E-1
5.230160042E0	-7.488385190E-3	-6.378818918E-3	-1.556938112E-1	1.560042566E-1
5.240170042E0	-8.558786537E-3	-8.381389780E-4	-1.510534608E-1	1.512980612E-1
5.250210042E0	-3.062070350E-3	-4.855354289E-3	-1.603347462E-1	1.604374694E-1
5.260251042E0	8.039526378E-3	7.773416396E-4	-1.654247475E-1	1.656218141E-1
5.270291042E0	3.708459483E-3	4.735458959E-3	-1.610843593E-1	1.611966130E-1
5.280331042E0	1.274256070E-2	3.845046787E-4	-1.524024135E-1	1.529346800E-1
5.290341042E0	5.635576139E-3	5.839175731E-4	-1.534496498E-1	1.535542110E-1
5.300381042E0	6.242793496E-3	-3.295052201E-3	-1.588384438E-1	1.589952234E-1
5.310421042E0	2.348225818E-3	5.333090080E-3	-1.476129591E-1	1.477279314E-1
5.320462042E0	-6.978553666E-3	5.068736547E-3	-1.483619875E-1	1.486124881E-1
5.330502042E0	-1.386317729E-2	1.228183437E-2	-1.649780202E-1	1.660143918E-1
5.340512042E0	-1.269346464E-2	7.685671616E-3	-1.543507057E-1	1.550623551E-1
5.350552042E0	-1.027463141E-2	-2.697759122E-3	-1.308501613E-1	1.312806561E-1
5.360592042E0	-8.910948804E-3	4.232159872E-3	-1.455202407E-1	1.458542308E-1
5.370633042E0	-6.022746325E-3	2.346917046E-3	-1.595915651E-1	1.597224128E-1
5.380673042E0	-9.580386474E-3	-5.881275684E-3	-1.673753786E-1	1.677524682E-1
5.390713042E0	-6.116731181E-3	-1.226740362E-2	-1.506108266E-1	1.512333451E-1
5.400723042E0	-8.789162266E-3	-3.840145175E-3	-1.554008657E-1	1.556965804E-1
5.410763042E0	8.440547157E-5	3.317961409E-3	-1.516580629E-1	1.516943771E-1
5.420804042E0	-2.740386694E-3	2.201403603E-3	-1.612381411E-1	1.612764522E-1
5.430844042E0	4.068769023E-3	4.469748689E-3	-1.462692690E-1	1.463941002E-1
5.440842417E0	1.072374326E-2	1.004540686E-2	-1.402823049E-1	1.410497569E-1
5.450852417E0	3.511262136E-3	7.240378736E-3	-1.519586098E-1	1.521715188E-1
5.460892417E0	2.127523120E-3	-2.892005453E-3	-1.557014126E-1	1.557428005E-1
5.470932417E0	-1.244986416E-3	1.933619399E-3	-1.551026577E-1	1.551197063E-1
5.480973417E0	-6.923400261E-3	-9.639454773E-4	-1.429784560E-1	1.431492282E-1
5.491013417E0	-3.335420829E-3	-5.514673535E-3	-1.554014504E-1	1.555350361E-1
5.501023417E0	2.706155358E-3	2.886021193E-3	-1.699212563E-1	1.699673079E-1
5.511063417E0	-5.498609680E-3	-8.295047418E-3	-1.702212185E-1	1.705118932E-1
5.521103417E0	-3.114798074E-3	6.719273049E-4	-1.536051857E-1	1.536382327E-1
5.531144417E0	-5.136678452E-3	-2.510026954E-3	-1.399829274E-1	1.400996277E-1
5.541184417E0	3.210984771E-3	-3.531357371E-3	-1.515095437E-1	1.515847048E-1
5.551224417E0	2.201796463E-3	6.056833765E-3	-1.577964699E-1	1.579280186E-1
5.561234417E0	6.455006311E-4	-5.277477577E-4	-1.438754189E-1	1.438778348E-1
5.571274417E0	6.856559278E-3	-8.274760321E-3	-1.533058083E-1	1.536819928E-1
5.581315417E0	4.676559682E-3	-2.890575626E-3	-1.613884145E-1	1.614820299E-1
5.591355417E0	-1.536600308E-3	6.834522584E-3	-1.435760415E-1	1.437468313E-1
5.601395417E0	4.636688980E-3	-3.921965081E-3	-1.407325405E-1	1.408635107E-1
5.611405417E0	7.194439264E-3	-1.040384574E-2	-1.637840188E-1	1.642717406E-1
5.621445417E0	-1.187861860E-3	4.960037721E-4	-1.601914895E-1	1.601966614E-1
5.631485417E0	-8.654993791E-3	-7.206738973E-4	-1.607896596E-1	1.610240446E-1
5.641526417E0	-9.166874124E-3	3.173283935E-3	-1.591430837E-1	1.594384596E-1
5.651566417E0	-3.222430239E-3	6.835157555E-3	-1.616877919E-1	1.618642811E-1
5.661576417E0	-1.449731240E-2	2.213705597E-3	-1.603405935E-1	1.610098707E-1
5.671616417E0	-1.204282943E-2	5.816028980E-3	-1.485151845E-1	1.491161157E-1
5.681656417E0	7.159367390E-4	7.959782691E-3	-1.552511770E-1	1.554567421E-1
5.691697417E0	-2.183791150E-3	3.307454693E-3	-1.610884523E-1	1.611372014E-1
5.701737417E0	-6.071333033E-3	3.389046192E-3	-1.586928481E-1	1.588451030E-1
5.711777417E0	-4.717037946E-3	6.927694310E-3	-1.543518752E-1	1.545792508E-1
5.721787417E0	-3.353517505E-3	5.735163814E-3	-1.464183730E-1	1.465690217E-1
5.731827417E0	1.373621277E-2	6.431448427E-3	-1.519562709E-1	1.527113465E-1
5.741868417E0	8.518840461E-3	9.756645765E-3	-1.577941310E-1	1.583248261E-1
5.751908417E0	6.573261679E-3	-1.089199232E-3	-1.524053371E-1	1.525509125E-1
5.761948417E0	-1.789097241E-3	-4.707483687E-3	-1.549500453E-1	1.550318607E-1
5.771958417E0	-1.232860296E-2	-7.517783437E-4	-1.618351418E-1	1.623058001E-1
5.781998417E0	-8.077327714E-3	4.621493071E-4	-1.771022218E-1	1.772869250E-1
5.792038417E0	-1.530856104E-2	-3.754551988E-4	-1.673718703E-1	1.680709254E-1
5.802079417E0	-1.124703937E-2	4.410417723E-3	-2.311380959E-1	2.314535959E-1
5.812119417E0	-4.327652212E-3	9.344248041E-3	-9.881385148E-2	9.934898484E-2
5.822129417E0	3.485550375E-3	5.691327970E-3	-1.858128190E-2	1.974346253E-2
5.832169417E0	-1.813235278E-3	-9.921569224E-3	-1.908729994E-1	1.911392876E-1
5.842209417E0	3.822779402E-3	-1.206131668E-2	-1.838376296E-1	1.842725238E-1
5.852250417E0	6.733422854E-3	-1.561561980E-2	-1.133359963E-1	1.146046885E-1
5.862290417E0	4.124890873E-4	-1.334764474E-2	-1.598897731E-1	1.604464687E-1
5.872330417E0	2.537479175E-3	-1.203043150E-2	-1.836914492E-1	1.841024676E-1
5.882340417E0	-3.190697674E-3	-9.281107248E-3	-1.735132009E-1	1.737905359E-1
5.892380417E0	-1.311600592E-2	6.905433778E-3	-1.706679457E-1	1.713104268E-1
5.902421417E0	-2.358027213E-2	1.648009866E-2	-1.744101638E-1	1.767668750E-1
5.912461417E0	-1.221590473E-2	1.360857673E-2	-1.018123037E-1	1.034416109E-1
5.922501417E0	-7.821116885E-3	2.374394392E-2	-1.501617604E-1	1.522284436E-1
5.932511417E0	-1.264489621E-2	1.906794840E-2	-1.941696596E-1	1.955130092E-1
5.942551417E0	-1.843881540E-2	9.823322296E-3	-1.365400869E-1	1.381292253E-1
5.952591417E0	-1.344618859E-2	5.521379560E-3	-1.161830056E-1	1.170887544E-1
5.962632417E0	-2.021165008E-2	-1.139520004E-2	-1.591442531E-1	1.608267847E-1
5.972672417E0	-1.313555298E-2	-2.543821120E-2	-1.842913735E-1	1.865018919E-1
5.982712417E0	2.981435875E-3	-1.894381384E-2	-1.468703628E-1	1.481170500E-1
5.992722417E0	2.183046544E-3	-1.696195491E-2	-1.425293899E-1	1.435517349E-1
6.002762417E0	1.152490773E-2	-1.281147790E-3	-1.568989223E-1	1.573268466E-1
6.012803417E0	9.211708107E-3	8.139950023E-3	-1.588448757E-1	1.593198321E-1
6.022843417E0	8.582821791E-3	9.223096473E-3	-1.565995449E-1	1.571055308E-1
6.032883417E0	-8.699126565E-4	1.245631437E-2	-1.660281801E-1	1.664970664E-1
6.042893417E0	-1.580179652E-2	1.940111635E-2	-1.609375942E-1	1.628711433E-1
6.052933417E0	-7.569206958E-3	1.711205933E-2	-1.595909804E-1	1.606841514E-1
6.062973417E0	-1.301592717E-2	1.232720967E-2	-1.548003566E-1	1.558349283E-1
6.073014417E0	-1.735928464E-2	2.030788246E-3	-1.446203542E-1	1.456726320E-1
6.083054417E0	-1.545525763E-2	-6.969136451E-3	-1.541998476E-1	1.551290651E-1
6.093064417E0	-2.014674598E-2	-6.582589815E-3	-1.565948671E-1	1.580227017E-1
6.103104417E0	-2.147151035E-2	-5.682927165E-3	-1.512066579E-1	1.528292341E-1
6.113144417E0	-2.244248619E-2	-1.337302987E-2	-1.492601198E-1	1.515291605E-1
6.123185417E0	-1.882793619E-2	-1.164783631E-2	-1.724595326E-1	1.738748218E-1
6.133225417E0	-8.050425954E-3	-2.934539379E-3	-1.724589479E-1	1.726716815E-1
6.143265417E0	-2.934263006E-3	1.250804395E-2	-1.143791395E-1	1.150984302E-1
6.153275417E0	6.745249762E-3	1.296511806E-2	-1.473100734E-1	1.480332746E-1
6.163315417E0	1.359973054E-2	1.672199523E-2	-1.812888283E-1	1.825656513E-1
6.173356417E0	9.413450751E-3	2.253215415E-3	-1.417710060E-1	1.421010492E-1
6.183396417E0	5.399236707E-3	7.685429505E-3	-1.401250148E-1	1.404394437E-1
6.193436417E0	8.661325229E-4	-7.595035206E-3	-1.456634974E-1	1.458639408E-1
6.203446417E0	1.343234714E-2	-1.060279726E-2	-1.573386329E-1	1.582665242E-1
6.213486417E0	7.529731400E-3	-8.066558330E-3	-1.526982826E-1	1.530964785E-1
6.223526417E0	-1.297218497E-3	-1.834531020E-2	-1.520989430E-1	1.532067937E-1
6.233567417E0	-8.095362720E-3	-1.559691785E-2	-1.327879286E-1	1.339456335E-1
6.243607417E0	-7.390729836E-3	-1.620593277E-2	-1.582350111E-1	1.592343364E-1
6.253617417E0	-9.887520613E-3	-4.759811698E-3	-1.883212745E-1	1.886407202E-1
6.263657417E0	-1.298698117E-2	8.470294867E-3	-1.589817005E-1	1.597359968E-1
6.273697417E0	-7.405909756E-3	7.546279477E-3	-1.489531410E-1	1.493279346E-1
6.283738417E0	-1.485711716E-2	1.150129503E-2	-1.263507289E-1	1.277400501E-1
6.293778417E0	-1.635771370E-2	1.665819663E-2	-1.372785902E-1	1.392497097E-1
6.303818417E0	-1.131499497E-2	1.692978152E-2	-1.645213526E-1	1.657767236E-1
6.313828417E0	-8.928259760E-3	5.859047128E-4	-1.675151271E-1	1.677539117E-1
6.323868417E0	-9.931141755E-3	1.037113331E-3	-1.749989784E-1	1.752836148E-1
6.333909417E0	-2.743230360E-3	-3.594941273E-3	-1.556891334E-1	1.557547918E-1
6.343949417E0	-1.029543928E-3	-9.159549116E-3	-1.498518580E-1	1.501350614E-1
6.353989417E0	4.392645385E-3	-3.865607972E-3	-1.495524806E-1	1.496669058E-1
6.363999417E0	9.156244069E-3	-8.287066882E-3	-1.690114295E-1	1.694620182E-1
6.374039417E0	-8.727496981E-3	-2.766468474E-3	-1.688623255E-1	1.691103413E-1
6.384079417E0	-6.528509923E-3	1.374260131E-3	-1.488040370E-1	1.489535211E-1
6.394120417E0	-7.574410066E-3	1.455271477E-3	-1.432649696E-1	1.434724399E-1
6.404160417E0	-4.692066223E-3	4.651364121E-3	-1.540431422E-1	1.541847604E-1
6.414170417E0	-2.003653510E-3	8.103158246E-3	-1.506003016E-1	1.508314511E-1
6.424210417E0	2.075430367E-3	7.351818443E-3	-1.407208461E-1	1.409280425E-1
6.434250417E0	2.552850957E-3	2.036136164E-2	-1.327873439E-1	1.343636141E-1
6.444295417E0	-5.756766535E-4	1.201195339E-2	-1.503009242E-1	1.507812529E-1
6.454335417E0	-8.088373470E-3	5.994766485E-3	-1.561399537E-1	1.564641945E-1
6.464375417E0	-8.877069214E-3	1.162956376E-4	-1.577871144E-1	1.580366709E-1
6.474385417E0	-8.177785620E-3	-2.269975911E-3	-1.507517445E-1	1.509904548E-1
6.484425417E0	6.643124486E-3	-8.910366367E-3	-1.411722511E-1	1.416090753E-1
6.494466417E0	-4.013741242E-3	-3.025468150E-3	-1.507523292E-1	1.508360976E-1
6.504506417E0	-5.531893128E-3	-4.734764602E-3	-1.615305018E-1	1.616945357E-1
6.514546417E0	-1.133593988E-2	-5.045082732E-3	-1.580876613E-1	1.585738473E-1
6.524556417E0	-2.947211391E-3	2.011414776E-3	-1.534461415E-1	1.534876222E-1
6.534596417E0	-7.939993520E-3	-1.854380490E-3	-1.413213551E-1	1.415563762E-1
6.544636417E0	-7.003285561E-3	4.240894150E-3	-1.515013576E-1	1.517224193E-1
6.554677417E0	-8.033236053E-3	7.957425532E-3	-1.450653273E-1	1.455053356E-1
6.564717417E0	-7.051184764E-3	1.243523241E-2	-1.500050551E-1	1.506846733E-1
6.574727417E0	-1.038028558E-2	2.212051931E-3	-1.564428395E-1	1.568024411E-1
6.584767417E0	-2.485146595E-3	-9.251510287E-3	-1.525509328E-1	1.528514098E-1
6.594807417E0	-5.757616209E-3	8.152343379E-4	-1.512043190E-1	1.513160958E-1
6.604848417E0	-6.793959809E-3	-2.144178548E-3	-1.643769264E-1	1.645312412E-1
6.614888417E0	-3.433190386E-3	-1.289566867E-3	-1.561440468E-1	1.561871093E-1
6.624928417E0	-5.848567821E-3	5.126418415E-3	-1.441689491E-1	1.443785711E-1
6.634938417E0	-2.826190016E-3	-1.881981175E-3	-1.527012062E-1	1.527389524E-1
6.644978417E0	-1.848805079E-3	-1.150732040E-2	-1.438695717E-1	1.443408818E-1
6.655019417E0	7.491991734E-3	-8.531288635E-3	-1.558458388E-1	1.562588823E-1
6.665059417E0	-2.671092621E-3	3.065407374E-3	-1.582414430E-1	1.582936693E-1
6.675099417E0	-1.390767324E-2	-5.377958324E-3	-1.399788344E-1	1.407708062E-1
6.685109417E0	-1.742384840E-2	4.405141524E-3	-1.467154115E-1	1.478120690E-1
6.695149417E0	-8.470909281E-3	1.309741588E-2	-1.562954897E-1	1.570718902E-1
6.705189417E0	-4.249623860E-3	-2.147700582E-3	-1.592898488E-1	1.593609985E-1
6.715230417E0	-6.980821746E-4	3.982364992E-3	-1.486613649E-1	1.487163339E-1
6.725270417E0	-2.340110522E-3	6.324663651E-3	-1.521053749E-1	1.522547949E-1
6.735280417E0	2.863991351E-3	7.519295490E-3	-1.636308217E-1	1.638285325E-1
6.745320417E0	-1.846920722E-3	-3.157884744E-3	-1.646792275E-1	1.647198571E-1
6.755360417E0	-2.383889265E-3	-9.993229592E-3	-1.592910182E-1	1.596219786E-1
6.765401417E0	2.883488161E-3	-1.328863811E-2	-1.399811733E-1	1.406400771E-1
6.775441417E0	-2.814972955E-3	-1.781293035E-2	-1.455196559E-1	1.466328573E-1
6.785481417E0	-2.896183014E-3	-5.566256940E-3	-1.598897731E-1	1.600128452E-1
6.795491417E0	2.627037505E-3	2.378359535E-3	-1.562978286E-1	1.563379964E-1
6.805531417E0	-5.917679169E-3	3.210084848E-3	-1.265097731E-1	1.266887772E-1
6.815571417E0	-2.445559117E-3	1.529777795E-3	-1.253128481E-1	1.253460445E-1
6.825612417E0	-5.107092911E-3	8.978714836E-3	-1.503120339E-1	1.506665432E-1
6.835652417E0	-1.032798726E-3	-2.555904756E-3	-1.497144485E-1	1.497398257E-1
6.845662417E0	-9.384198685E-3	-1.416327193E-2	-1.485175234E-1	1.494861740E-1
6.855702417E0	-1.402885906E-2	-2.499867417E-4	-1.637869424E-1	1.643868421E-1
6.865742417E0	-9.537037136E-3	-4.899738310E-3	-1.606446487E-1	1.610020673E-1
6.875783417E0	-1.421834083E-2	-7.486975919E-3	-1.619930166E-1	1.627880630E-1
6.885823417E0	4.732010015E-3	-4.988858099E-3	-1.524129385E-1	1.525679666E-1
6.895833417E0	8.274883660E-3	5.209110836E-3	-1.506172585E-1	1.509343139E-1
6.905873417E0	1.065059824E-2	1.053294130E-2	-1.357992446E-1	1.366228859E-1
6.915913417E0	-2.226624289E-3	2.084889152E-2	-1.917822415E-1	1.929250172E-1
6.925954417E0	-2.024770182E-2	2.484496549E-2	-2.128877664E-1	2.152868849E-1
6.935994417E0	-1.576904298E-2	2.602791203E-2	-8.879640162E-2	9.386647890E-2
6.946034417E0	-3.449902916E-4	2.570512746E-2	-1.214291275E-1	1.241205285E-1
6.956044417E0	-8.399045630E-4	1.474873354E-2	-1.932797134E-1	1.938434373E-1
6.966084417E0	-1.427552020E-3	9.651281680E-3	-1.619947708E-1	1.622882956E-1
6.976124417E0	-8.321289083E-3	3.803887870E-5	-1.417873782E-1	1.420313554E-1
6.986165417E0	-1.577455443E-3	-2.176992848E-2	-1.453799075E-1	1.470093046E-1
6.996205417E0	4.346034396E-4	-2.348325860E-2	-1.724741507E-1	1.740660362E-1
7.006215417E0	-1.629705797E-4	-2.087556944E-2	-1.699294424E-1	1.712069840E-1
7.016255417E0	5.249440635E-3	-1.300434922E-2	-1.613971853E-1	1.620053121E-1
7.026295417E0	1.278230806E-2	2.945078071E-4	-1.365488577E-1	1.371461435E-1
7.036336417E0	7.893670325E-3	1.468058150E-2	-1.328066397E-1	1.338485452E-1
7.046376417E0	3.101735485E-3	4.046903634E-3	-1.684325552E-1	1.685097144E-1
7.056386417E0	5.614514742E-4	4.501044997E-3	-1.664866018E-1	1.665483810E-1
7.066426417E0	-6.490292887E-3	1.209996769E-2	-1.612486660E-1	1.618322138E-1
7.076466417E0	-1.636613506E-2	1.380679735E-2	-1.570573819E-1	1.585102496E-1
7.086507417E0	-1.142884437E-2	9.159261324E-3	-1.476281619E-1	1.483529061E-1
7.096547417E0	-1.201834650E-2	3.592204959E-3	-1.473293692E-1	1.478623942E-1
7.106587417E0	-1.907070299E-2	5.295357266E-3	-1.420908487E-1	1.434626843E-1
7.116597417E0	-1.166637381E-2	-5.340970117E-3	-1.616994864E-1	1.622077499E-1
7.126637417E0	-1.048443225E-2	-8.764615380E-3	-1.588554007E-1	1.594420902E-1
7.136677417E0	-1.202246010E-2	-5.804736544E-3	-1.527181631E-1	1.533005932E-1
7.146718417E0	-1.450069054E-2	1.676885518E-3	-1.554125601E-1	1.560965913E-1
7.156758417E0	-7.432176545E-4	4.486509184E-3	-1.563106924E-1	1.563768324E-1
7.166768417E0	1.003104006E-2	1.012434427E-2	-1.447840762E-1	1.454838576E-1
7.176808417E0	3.572767535E-3	9.581439430E-3	-1.467300296E-1	1.470859281E-1
7.186848417E0	2.972199102E-3	1.194023363E-2	-1.658901858E-1	1.663458954E-1
7.196889417E0	-5.096789477E-3	3.109165560E-3	-1.615492129E-1	1.616594952E-1
7.206929417E0	-4.361700823E-3	7.301582638E-3	-1.402934146E-1	1.405509862E-1
7.216939417E0	-5.950839277E-3	-4.478642852E-3	-1.530175406E-1	1.531986895E-1
7.226979417E0	-2.235717166E-3	-7.528381515E-4	-1.627473074E-1	1.627644042E-1
7.237019417E0	2.250883381E-3	-5.064661768E-3	-1.590045047E-1	1.591010678E-1
7.247060417E0	2.017049573E-3	-7.256029174E-5	-1.573579288E-1	1.573708724E-1
7.257100417E0	-3.460101283E-3	-3.817304489E-3	-1.528672671E-1	1.529540633E-1
7.267140417E0	-1.737533022E-2	-3.111079610E-3	-1.455319351E-1	1.465985165E-1
7.277150417E0	-2.221753055E-2	9.600575357E-3	-1.552617019E-1	1.571368378E-1
7.287190417E0	-9.544910321E-3	7.305502100E-4	-1.660398746E-1	1.663156005E-1
7.297230417E0	-5.193850973E-3	8.370471932E-3	-1.582554764E-1	1.585617756E-1
7.307271417E0	-5.967330253E-3	8.074168847E-3	-1.593038821E-1	1.596199489E-1
7.317311417E0	-1.857479971E-3	1.690947615E-2	-1.518188614E-1	1.527689343E-1
7.327321417E0	-7.431868196E-3	1.028184450E-2	-1.503213894E-1	1.508557891E-1
7.337361417E0	-4.765158703E-3	9.687228352E-3	-1.516685879E-1	1.520523255E-1
7.347401417E0	-1.324341812E-3	2.890808601E-3	-1.441847366E-1	1.442197938E-1
7.357442417E0	-7.208449740E-3	7.373412028E-3	-1.456816238E-1	1.460461039E-1
7.367482417E0	-1.148201292E-3	-1.297497153E-3	-1.570579666E-1	1.570675229E-1
7.377492417E0	-6.093796848E-3	-5.120379338E-3	-1.483760208E-1	1.485893542E-1
7.387532417E0	-3.911842089E-3	-1.546209385E-3	-1.627467227E-1	1.628010719E-1
7.397572417E0	-3.997236562E-3	3.161082440E-3	-1.672362149E-1	1.673138425E-1
7.407612417E0	1.618861039E-3	5.429317891E-3	-1.495735306E-1	1.496807912E-1
7.417653417E0	-1.885345152E-2	3.175769001E-3	-1.528666824E-1	1.540576539E-1
7.427693417E0	-7.366007078E-4	1.129530402E-2	-1.557113528E-1	1.561222338E-1
7.437703417E0	-8.524447849E-3	1.208417107E-2	-1.531666446E-1	1.538788953E-1
7.447721833E0	-5.578138665E-3	1.515859595E-2	-1.564592117E-1	1.572907613E-1
7.457761833E0	3.673833003E-3	1.178869482E-2	-1.510710025E-1	1.515747940E-1
7.467802833E0	4.052342002E-3	3.694732231E-3	-1.513697952E-1	1.514690973E-1
7.477842833E0	-2.072563861E-5	2.028508745E-3	-1.566089004E-1	1.566220386E-1
7.487852833E0	7.451179996E-4	-8.901015390E-4	-1.536157107E-1	1.536200966E-1
7.497892833E0	-6.323053383E-3	-7.287480799E-3	-1.603522879E-1	1.606422877E-1
7.507932833E0	-5.409494459E-3	-1.204584897E-2	-1.642430252E-1	1.647729845E-1
7.517973833E0	1.688177953E-4	-1.006167399E-2	-1.503231436E-1	1.506595941E-1
7.528013833E0	5.827801069E-4	2.057808777E-4	-1.452348965E-1	1.452362116E-1
7.538023833E0	-1.101151763E-2	-2.748264447E-3	-1.443373489E-1	1.447828608E-1
7.548063833E0	-1.895164819E-2	9.567981698E-3	-1.428404617E-1	1.444095175E-1
7.558103833E0	-1.519286611E-2	1.277313753E-2	-1.470317459E-1	1.483654627E-1
7.568143833E0	-1.365607623E-2	1.732234439E-2	-1.581087112E-1	1.596399593E-1
7.578184833E0	-6.718610669E-3	1.924842637E-2	-1.611024857E-1	1.623873534E-1
7.588224833E0	-7.636264928E-3	1.870098994E-2	-1.564621353E-1	1.577607028E-1
7.598234833E0	-9.476554999E-4	1.611173321E-2	-1.515229923E-1	1.523801272E-1
7.608274833E0	-8.115364308E-4	-1.309109358E-3	-1.569123709E-1	1.569199302E-1
7.618314833E0	6.300537034E-3	-6.142943152E-3	-1.590085977E-1	1.592518969E-1
7.628355833E0	-5.317700026E-4	-7.007422009E-3	-1.679905057E-1	1.681374341E-1
7.638395833E0	-3.187429172E-3	-9.334586430E-3	-1.494296890E-1	1.497548870E-1
7.648405833E0	1.461118693E-4	-1.312783511E-2	-1.443396878E-1	1.449355266E-1
7.658445833E0	2.303035520E-3	-1.319709264E-2	-1.623017496E-1	1.628536925E-1
7.668485833E0	7.993737655E-4	8.538807789E-4	-1.461353678E-1	1.461400486E-1
7.678526833E0	1.900230884E-4	9.537471109E-3	-1.393993753E-1	1.397253925E-1
7.688566833E0	1.044787802E-3	1.175770001E-2	-1.509248221E-1	1.513857226E-1
7.698606833E0	-3.741774908E-3	1.805667245E-2	-1.759228384E-1	1.768866569E-1
7.708616833E0	-2.091626697E-3	1.654313439E-2	-1.708334219E-1	1.716452978E-1
7.718656833E0	-6.588085284E-3	8.526323070E-3	-1.506260294E-1	1.510109326E-1
7.728696833E0	-1.760061932E-2	2.457977599E-3	-1.408950931E-1	1.420114457E-1
7.738737833E0	-7.353675391E-3	4.402871160E-3	-1.462850565E-1	1.465359327E-1
7.748777833E0	-1.172542612E-2	1.762889838E-3	-1.567638516E-1	1.572116363E-1
7.758787833E0	-1.259118862E-2	-1.804464455E-3	-1.578128421E-1	1.583246262E-1
7.768827833E0	4.562600646E-3	-6.779234419E-3	-1.464359146E-1	1.466637393E-1
7.778867833E0	3.934431528E-3	-7.843866209E-3	-1.620035416E-1	1.622410351E-1
7.788908833E0	9.574221773E-4	-1.250020503E-3	-1.587092203E-1	1.587170306E-1
7.798948833E0	-4.653024639E-3	8.657031180E-4	-1.459856790E-1	1.460623790E-1
7.808958833E0	-4.760672792E-3	-1.640331284E-3	-1.491297269E-1	1.492147115E-1
7.818998833E0	3.568128592E-3	4.647549726E-3	-1.744271207E-1	1.745255044E-1
7.829038833E0	1.262308792E-3	7.647198765E-3	-1.700855631E-1	1.702620681E-1
7.839079833E0	1.730102033E-3	1.277046973E-2	-1.401484036E-1	1.407396646E-1
7.849119833E0	-4.217372811E-4	8.900138307E-3	-1.179950577E-1	1.183309933E-1
7.859159833E0	-2.776159777E-3	1.132474110E-2	-1.426942813E-1	1.431698807E-1
7.869169833E0	1.759379224E-3	3.780805073E-3	-1.925406253E-1	1.925857791E-1
7.879209833E0	2.882531136E-3	-2.883755397E-3	-1.843071610E-1	1.843522569E-1
7.889249833E0	-1.908741323E-3	-3.166422592E-3	-1.479328018E-1	1.479789964E-1
7.899290833E0	-8.041040716E-4	-1.219271458E-2	-1.413459134E-1	1.418730986E-1
7.909330833E0	-7.864630676E-3	-3.477330012E-3	-1.631998819E-1	1.634262699E-1
7.919340833E0	-1.114181461E-2	-8.928538417E-3	-1.491291422E-1	1.498110806E-1
7.929380833E0	-1.387663046E-4	1.256146375E-3	-1.151503873E-1	1.151573222E-1
7.939420833E0	-8.616607734E-3	1.669295558E-2	-1.447881693E-1	1.460017625E-1
7.949461833E0	-7.538847118E-3	1.485216530E-2	-1.896942008E-1	1.904240290E-1
7.959501833E0	-1.597477817E-2	2.208356308E-2	-1.666427225E-1	1.688569639E-1
7.969511833E0	-1.569521274E-2	1.192617747E-2	-1.426942813E-1	1.440494059E-1
7.979551833E0	-2.821913326E-2	2.510311549E-2	-1.350607413E-1	1.402422537E-1
7.989591833E0	-2.468034581E-2	1.965514133E-2	-1.620041263E-1	1.650478143E-1
7.999632833E0	-9.598320981E-3	-3.536574184E-3	-1.720332706E-1	1.723371153E-1
8.009672833E0	2.633005776E-3	-6.566468859E-4	-1.465867728E-1	1.466118886E-1
8.019712833E0	1.017878733E-2	-1.223580582E-2	-1.358086002E-1	1.367380654E-1
8.029722833E0	7.796519750E-3	-2.183732221E-2	-1.626028812E-1	1.642478351E-1
8.039762833E0	2.029664484E-3	-1.673544839E-2	-1.581122196E-1	1.590083921E-1
8.049802833E0	2.997225642E-3	-6.944646668E-3	-1.263787955E-1	1.266049424E-1
8.059843833E0	7.041829219E-4	8.613451151E-4	-1.311694193E-1	1.311741375E-1
8.069883833E0	2.734379594E-3	1.208635921E-2	-1.727828836E-1	1.732266775E-1
8.079893833E0	-7.647016039E-4	1.487896656E-2	-1.635021830E-1	1.641795732E-1
8.089933833E0	-2.225911659E-3	1.537402016E-2	-1.426960355E-1	1.435391017E-1
8.099973833E0	-1.029351152E-2	2.313008220E-2	-1.410494596E-1	1.433035489E-1
8.110014833E0	-1.513300524E-2	1.230853056E-2	-1.548202372E-1	1.560442681E-1
8.120054833E0	-1.239050350E-2	4.902004106E-3	-1.516767740E-1	1.522609536E-1
8.130064833E0	-2.004844424E-2	-5.044680736E-3	-1.432942057E-1	1.447778239E-1
8.140104833E0	-1.484290340E-2	4.899994126E-3	-1.521264249E-1	1.529273386E-1
8.150144833E0	-1.892347649E-2	-8.996950840E-3	-1.790709794E-1	1.802927029E-1
8.160184833E0	-1.490570387E-2	-1.097943103E-2	-1.750287992E-1	1.760051376E-1
8.170225833E0	-4.830403123E-3	3.699505934E-4	-1.362605900E-1	1.363466832E-1
8.180265833E0	5.975813284E-3	-1.196902203E-3	-1.335667777E-1	1.337057479E-1
8.190275833E0	1.742493105E-4	6.735298075E-3	-1.593126529E-1	1.594550595E-1
8.200315833E0	3.457259901E-3	1.878212919E-2	-1.687424576E-1	1.698197221E-1
8.210355833E0	9.412868314E-3	1.719604910E-2	-1.627560782E-1	1.639324471E-1
8.220396833E0	1.292346579E-2	1.056498678E-2	-1.422493082E-1	1.432253490E-1
8.230436833E0	3.147652117E-3	-1.455769404E-3	-1.522796220E-1	1.523191066E-1
8.240446833E0	5.827814774E-3	-3.184037330E-3	-1.599131620E-1	1.600509947E-1
8.250486833E0	5.672034442E-3	-5.675467397E-3	-1.615603226E-1	1.617594534E-1
8.260526833E0	-1.093991208E-3	-1.540666407E-2	-1.506324613E-1	1.514222590E-1
8.270567833E0	-4.996352128E-3	-8.155321805E-3	-1.480883378E-1	1.483968618E-1
8.280607833E0	-7.039353289E-3	2.544822455E-3	-1.501845646E-1	1.503709814E-1
8.290617833E0	-1.213004659E-2	7.778779389E-3	-1.416523075E-1	1.423833686E-1
8.300657833E0	-1.892805833E-2	1.325235796E-2	-1.473398942E-1	1.491406745E-1
8.310697833E0	-1.059920213E-2	1.212934081E-2	-1.587162369E-1	1.595315262E-1
8.320737833E0	-1.356561112E-2	1.439776812E-2	-1.736851090E-1	1.748080050E-1
8.330778833E0	-2.182502707E-2	2.184379983E-2	-1.503330839E-1	1.534715593E-1
8.340818833E0	-2.100546214E-2	1.617824986E-2	-1.346163529E-1	1.372025061E-1
8.350828833E0	-1.305303415E-2	1.766957764E-2	-1.611112565E-1	1.626020684E-1
8.360868833E0	-8.254548598E-3	9.157077754E-3	-1.507827348E-1	1.512858974E-1
8.370908833E0	-1.342951946E-2	1.202155561E-3	-1.416517228E-1	1.422919806E-1
8.380949833E0	-9.276863448E-3	-6.463425388E-3	-1.525795841E-1	1.529979266E-1
8.390989833E0	-1.284658175E-2	-9.168831571E-3	-1.540764713E-1	1.548827336E-1
8.400999833E0	-2.216017074E-3	-1.694695315E-2	-1.401554203E-1	1.411936677E-1
8.411039833E0	3.172445681E-3	-1.315128793E-2	-1.429995060E-1	1.436380155E-1
8.421079833E0	1.661270712E-2	-7.989420765E-3	-1.684471732E-1	1.694528343E-1
8.431120833E0	2.295264662E-2	-4.582631928E-3	-1.901520377E-1	1.915871132E-1
8.441142042E0	2.872438979E-2	-1.044600051E-2	-1.536279899E-1	1.566389759E-1
8.451152042E0	2.244061554E-2	2.456200593E-3	-1.329715312E-1	1.348741719E-1
8.461192042E0	1.025702124E-2	1.379107382E-2	-1.653037101E-1	1.661948157E-1
8.471232042E0	-1.488358495E-3	1.390348654E-2	-1.768297416E-1	1.773817343E-1
8.481272042E0	-4.133762196E-3	6.601469927E-3	-1.531789237E-1	1.533768238E-1
8.491313042E0	-7.412684304E-3	-2.262922707E-3	-1.389584953E-1	1.391744665E-1
8.501353042E0	-1.451817508E-2	1.078263111E-3	-1.424013358E-1	1.431435661E-1
8.511363042E0	-8.792972092E-3	2.548600305E-3	-1.602142936E-1	1.604756418E-1
8.521403042E0	-1.806941299E-2	-1.277721687E-3	-1.608124638E-1	1.618294929E-1
8.531443042E0	-1.792525171E-2	-1.011095962E-2	-1.347660416E-1	1.363283981E-1
8.541484042E0	-1.889440258E-2	-3.020255906E-3	-1.597646427E-1	1.609063748E-1
8.551524042E0	-1.815095195E-2	-5.759868301E-3	-1.748820341E-1	1.759157724E-1
8.561534042E0	-5.098066272E-3	6.949753845E-3	-1.555721891E-1	1.558107678E-1
8.571574042E0	-1.671652717E-3	1.427597245E-2	-1.413517606E-1	1.420806744E-1
8.581614042E0	5.774810677E-3	7.397609451E-3	-1.676952213E-1	1.679576146E-1
8.591655042E0	1.211026198E-2	5.895784087E-3	-1.868536234E-1	1.873384512E-1
8.601695042E0	1.789101352E-2	5.918090302E-3	-1.492805851E-1	1.504652958E-1
8.611705042E0	9.497422250E-3	6.958465283E-3	-1.353583646E-1	1.358694525E-1
8.621745042E0	6.281672912E-3	6.476252717E-3	-1.477819437E-1	1.480570976E-1
8.631785042E0	-5.158354263E-3	9.942591791E-3	-1.355080533E-1	1.359702036E-1
8.641825042E0	-5.308942907E-3	-1.231291140E-2	-1.139528775E-1	1.147390559E-1
8.651866042E0	-9.219558451E-3	-1.950232800E-2	-1.483812833E-1	1.499411427E-1
8.661906042E0	-8.469940836E-3	-1.169846954E-2	-1.956829190E-1	1.962151852E-1
8.671916042E0	-5.819763432E-3	-6.047766013E-3	-1.739780545E-1	1.741803909E-1
8.681956042E0	-1.410736250E-2	-3.398684962E-3	-1.473328775E-1	1.480457549E-1
8.691996042E0	-1.283301438E-2	7.827758957E-3	-1.596067679E-1	1.603130700E-1
8.702037042E0	-1.066741356E-2	1.950442478E-2	-1.509248221E-1	1.525533291E-1
8.712077042E0	-1.203021680E-2	2.708478256E-2	-1.368546671E-1	1.400268241E-1
8.722087042E0	2.556763566E-4	2.065198196E-2	-1.361062235E-1	1.376643519E-1
8.732127042E0	7.230420196E-3	1.976374422E-2	-1.501769632E-1	1.516443367E-1
8.742167042E0	4.167559559E-3	1.208966654E-2	-1.742762625E-1	1.747447975E-1
8.752208042E0	2.624390270E-3	-3.086050786E-3	-1.860999173E-1	1.861440043E-1
8.762248042E0	4.674241352E-3	-1.034060902E-2	-1.642447793E-1	1.646363395E-1
8.772258042E0	1.799206529E-3	-1.286632296E-2	-1.325101858E-1	1.331455172E-1
8.782298042E0	-4.568228591E-4	-7.558755060E-3	-1.364015079E-1	1.366115471E-1
8.792338042E0	-6.526680384E-3	-1.159660921E-2	-1.516685879E-1	1.522512380E-1
8.802378042E0	-9.233984628E-3	-6.816409919E-3	-1.473270303E-1	1.477734204E-1
8.812419042E0	-7.943727972E-3	1.007795027E-3	-1.609481192E-1	1.611471859E-1
8.822459042E0	-1.019711926E-2	1.197004986E-2	-1.640915823E-1	1.648432914E-1
8.832469042E0	-1.721477618E-2	1.698128270E-2	-1.515183145E-1	1.534356937E-1
8.842509042E0	-6.767336705E-3	1.447717148E-2	-1.613977700E-1	1.621870079E-1
8.852549042E0	-1.171532368E-2	1.422569553E-2	-1.521164846E-1	1.532287314E-1
8.862590042E0	-4.664095519E-3	4.733371320E-3	-1.548102969E-1	1.549528529E-1
8.872630042E0	6.621526333E-3	7.671501255E-4	-1.591501004E-1	1.592896342E-1
8.882640042E0	7.141323248E-4	-4.791226778E-3	-1.414874160E-1	1.415703173E-1
8.892680042E0	-1.696983038E-3	-9.004031452E-3	-1.380451602E-1	1.383489016E-1
8.902720042E0	-5.272863759E-3	-2.494668877E-3	-1.527152395E-1	1.528266039E-1
8.912760042E0	-1.802242056E-3	-9.550864887E-3	-1.654387808E-1	1.657240395E-1
8.922801042E0	1.769493080E-3	-5.226405803E-3	-1.673835647E-1	1.674744881E-1
8.932811042E0	-1.921792491E-3	2.893339349E-3	-1.473246914E-1	1.473656317E-1
8.942851042E0	-9.722112932E-3	4.633260593E-3	-1.654364419E-1	1.657866186E-1
8.952891042E0	-1.403241764E-2	9.068346256E-3	-1.631911111E-1	1.640441477E-1
8.962931042E0	-1.114472223E-2	1.419518494E-2	-1.311577249E-1	1.323935682E-1
8.972972042E0	-1.518886214E-2	1.240353868E-2	-1.387936038E-1	1.401720862E-1
8.983012042E0	-1.798503721E-2	1.782023481E-2	-1.584028262E-1	1.604134585E-1
8.993022042E0	-8.191446634E-3	1.060770344E-2	-1.572053164E-1	1.577755833E-1
9.003062042E0	-7.907751608E-3	9.543638094E-3	-1.597500247E-1	1.602300969E-1
9.013102042E0	-5.853087993E-3	-9.441869133E-3	-1.566059768E-1	1.569994889E-1
9.023143042E0	1.365742839E-3	-1.164854893E-2	-1.512165982E-1	1.516707404E-1
9.033183042E0	8.773450158E-4	-5.184420054E-3	-1.527140701E-1	1.528045652E-1
9.043193042E0	6.623545450E-3	-9.752132446E-3	-1.534625137E-1	1.539146470E-1
9.053233042E0	-4.406669566E-3	-8.373811240E-3	-1.570550430E-1	1.573398423E-1
9.063273042E0	-6.285713429E-3	2.482983582E-3	-1.648388565E-1	1.649773439E-1
9.073313042E0	-2.347647948E-3	1.204900098E-2	-1.527129006E-1	1.532054826E-1
9.083354042E0	-2.901509462E-3	1.482481586E-2	-1.444788516E-1	1.452664189E-1
9.093364042E0	-1.655977611E-2	1.923814806E-2	-1.512142593E-1	1.533299864E-1
9.103404042E0	-1.909979974E-2	6.312727109E-3	-1.592980349E-1	1.605631240E-1
9.113444042E0	-9.280392334E-3	7.825908861E-3	-1.546588540E-1	1.551345598E-1
9.123484042E0	-1.146341147E-2	1.007875426E-2	-1.426837564E-1	1.434978934E-1
9.133525042E0	-9.534447002E-3	1.070414595E-2	-1.452284646E-1	1.459342021E-1
9.143565042E0	-1.436912133E-3	-6.629870036E-3	-1.537613064E-1	1.539108808E-1
9.153575042E0	-1.389903717E-3	-7.077474394E-3	-1.561563259E-1	1.563228090E-1
9.163615042E0	7.988886293E-3	5.094980495E-4	-1.482222390E-1	1.484382499E-1
9.173655042E0	4.033151257E-3	3.312036535E-4	-1.507669473E-1	1.508212465E-1
9.183696042E0	-8.855767990E-3	-3.450738885E-3	-1.613948464E-1	1.616744528E-1
9.193736042E0	-1.380117854E-2	3.734063893E-3	-1.607972610E-1	1.614316416E-1
9.203746042E0	-1.610495181E-2	3.337526741E-4	-1.509178054E-1	1.517750469E-1
9.213786042E0	-8.970620097E-3	9.640752124E-3	-1.564562881E-1	1.570095099E-1
9.223826042E0	-9.172111494E-4	2.359776353E-2	-1.667848098E-1	1.684484150E-1
9.233866042E0	-6.936869414E-3	1.979932087E-2	-1.597488552E-1	1.611205450E-1
9.243907042E0	-3.401174597E-3	1.206985909E-2	-1.497202957E-1	1.502445221E-1
9.253916042E0	4.766851198E-4	2.028956423E-3	-1.338532913E-1	1.338695166E-1
9.263957042E0	4.992482916E-3	7.669820180E-3	-1.410383499E-1	1.413349467E-1
9.273997042E0	8.002005983E-4	-2.024178151E-3	-1.491215408E-1	1.491374250E-1
9.284037042E0	-1.942623197E-4	2.154977624E-3	-1.519656265E-1	1.519810294E-1
9.294078042E0	3.699839409E-3	-2.154059429E-3	-1.497208804E-1	1.497820777E-1
9.304118042E0	4.873720484E-3	-3.181698443E-3	-1.468773794E-1	1.469926561E-1
9.314128042E0	-9.066688023E-3	9.189721663E-5	-1.582537222E-1	1.585132608E-1
9.324168042E0	-2.094577942E-2	3.906118213E-3	-1.569059390E-1	1.583460044E-1
9.334208042E0	-1.782122381E-2	1.635479922E-2	-1.558581179E-1	1.577238993E-1
9.344249042E0	-1.109995220E-2	1.588328067E-2	-1.618456668E-1	1.630015564E-1
9.354289042E0	-1.005510501E-2	1.241186639E-2	-1.422370291E-1	1.431311706E-1
9.364299042E0	-3.923230455E-3	4.341658121E-3	-1.518171072E-1	1.519298383E-1
9.374339042E0	-2.506845247E-3	2.271963051E-3	-1.524146926E-1	1.524522372E-1
9.384379042E0	-1.138380939E-2	-1.380925043E-3	-1.581022793E-1	1.585175977E-1
9.394419042E0	-1.483755640E-2	-6.198441451E-3	-1.566053921E-1	1.574287858E-1
9.404460042E0	-1.520680121E-2	-1.266571321E-2	-1.437333316E-1	1.450894128E-1
9.414469042E0	-5.486622888E-3	4.542647023E-3	-1.473258609E-1	1.474979591E-1
9.424510042E0	-7.843023387E-3	-5.440907255E-3	-1.422358596E-1	1.425558005E-1
9.434550042E0	-7.041447780E-3	3.467421723E-3	-1.590004116E-1	1.591940197E-1
9.444573542E0	-9.410559121E-3	1.433120579E-3	-1.581016946E-1	1.583879992E-1
9.454614542E0	-1.885512345E-3	3.439853014E-4	-1.485227859E-1	1.485351521E-1
9.464654542E0	1.916954834E-3	7.645316692E-3	-1.531643057E-1	1.533669786E-1
9.474664542E0	8.571099951E-3	1.641668835E-2	-1.652896768E-1	1.663239269E-1
9.484704542E0	6.723521417E-3	1.281144136E-2	-1.688822061E-1	1.695008504E-1
9.494744542E0	1.421923618E-2	5.517565166E-3	-1.534630984E-1	1.542191712E-1
9.504784542E0	7.091663028E-3	2.477661702E-3	-1.548102969E-1	1.549924466E-1
9.514825542E0	3.669591488E-3	1.309630126E-2	-1.504693240E-1	1.510827471E-1
9.524835542E0	-3.955961158E-3	-6.475626882E-3	-1.564574575E-1	1.566413719E-1
9.534875542E0	-1.076821407E-2	-1.638463373E-2	-1.693301028E-1	1.704614161E-1
9.544915542E0	-1.344829907E-2	-4.471968804E-3	-1.555593252E-1	1.562035816E-1
9.554955542E0	-1.099052932E-2	3.313196842E-3	-1.503202200E-1	1.507578772E-1
9.564996542E0	-1.240578392E-2	3.645072011E-3	-1.648400259E-1	1.653463763E-1
9.575005542E0	-4.407389048E-3	1.587516309E-2	-1.651388186E-1	1.659586554E-1
9.585046542E0	1.221273215E-3	1.124724265E-2	-1.453793228E-1	1.458188584E-1
9.595086542E0	-2.153072711E-3	1.044195314E-2	-1.440315396E-1	1.444256019E-1
9.605126542E0	9.255799768E-4	1.568313230E-2	-1.675326687E-1	1.682676809E-1
9.615167542E0	1.972071694E-3	5.176142589E-3	-1.729220474E-1	1.730107395E-1
9.625207542E0	5.676949758E-3	1.241472148E-2	-1.477749270E-1	1.484041176E-1
9.635217542E0	-9.517005854E-4	8.368219840E-3	-1.422370291E-1	1.424861582E-1
9.645257542E0	4.483055673E-4	-3.899795911E-3	-1.603493643E-1	1.603974065E-1
9.655297542E0	2.921488211E-3	-6.820754218E-3	-1.591518545E-1	1.593247331E-1
9.665337542E0	-5.085974413E-3	-2.454560632E-3	-1.633437234E-1	1.634413166E-1
9.675378542E0	-7.124398299E-3	-1.690005208E-3	-1.628946573E-1	1.630591381E-1
9.685388542E0	-7.532234739E-3	-9.207391217E-3	-1.613977700E-1	1.618355671E-1
9.695428542E0	-1.077832108E-2	-2.319457973E-3	-1.634939969E-1	1.638653078E-1
9.705468542E0	-1.186971073E-2	1.134100823E-2	-1.593027127E-1	1.601463792E-1
9.715508542E0	-9.557038725E-3	2.046671202E-2	-1.537642300E-1	1.554144836E-1
9.725549542E0	-6.559027364E-3	1.171107760E-2	-1.495741153E-1	1.501751848E-1
9.735558542E0	-3.528335548E-3	9.647069857E-3	-1.581063724E-1	1.584397049E-1
9.745599542E0	-8.776293823E-3	1.096742140E-2	-1.679858279E-1	1.685720797E-1
9.755639542E0	7.526896871E-4	6.367467097E-3	-1.646920913E-1	1.648168563E-1
9.765679542E0	-3.171552611E-3	6.600921750E-3	-1.549617398E-1	1.551346889E-1
9.775720542E0	-1.369219192E-3	-6.221483136E-4	-1.378966409E-1	1.379048418E-1
9.785760542E0	2.104038326E-4	-5.022703428E-3	-1.495717764E-1	1.496562331E-1
9.795770542E0	-1.520979563E-3	-5.719129653E-3	-1.601996756E-1	1.603089451E-1
9.805810542E0	-3.301180357E-3	-8.133321656E-3	-1.527146548E-1	1.529667104E-1
9.815850542E0	-1.943628187E-4	5.438047601E-3	-1.543618155E-1	1.544576971E-1
9.825890542E0	-7.181796944E-4	6.586180371E-3	-1.576561368E-1	1.577952820E-1
9.835931542E0	-6.467929571E-3	-9.012477938E-5	-1.564592117E-1	1.565928707E-1
9.845941542E0	-1.888623247E-3	1.294097089E-2	-1.561604190E-1	1.567070901E-1
9.855981542E0	-4.199981913E-3	8.876594128E-3	-1.545132583E-1	1.548250005E-1
9.866021542E0	-4.966695781E-3	1.706292902E-2	-1.572070706E-1	1.582083268E-1
9.876061542E0	-2.953056323E-3	9.903671262E-3	-1.578064102E-1	1.581444477E-1
9.886102542E0	-5.839758168E-3	3.831771780E-3	-1.661895633E-1	1.663362744E-1
9.896111542E0	-4.917090379E-3	-5.380808841E-5	-1.660398746E-1	1.661126745E-1
9.906152542E0	7.770104497E-4	-3.472748171E-3	-1.615492129E-1	1.615884028E-1
9.916192542E0	5.260666832E-4	-5.373819591E-3	-1.407430655E-1	1.408466015E-1
9.926232542E0	-7.205681449E-3	-2.115769302E-3	-1.513709646E-1	1.515571419E-1
9.936273542E0	-2.455168194E-3	-3.160008928E-3	-1.585554385E-1	1.586059286E-1
9.946313542E0	2.337036165E-3	-4.237646204E-3	-1.570585513E-1	1.571330898E-1
9.956323542E0	-3.395199473E-3	1.044402251E-2	-1.408927542E-1	1.413201089E-1
9.966363542E0	5.864394133E-3	2.091025530E-2	-1.567597586E-1	1.582569171E-1
9.976403542E0	5.119694117E-4	2.269873128E-2	-1.661895633E-1	1.677333165E-1
9.986443542E0	-1.175635241E-2	2.237845461E-2	-1.672373843E-1	1.691370739E-1
9.996484542E0	-6.327214956E-3	1.227184385E-2	-1.530163711E-1	1.536380214E-1
1.000649354E1	2.696365840E-4	8.334950097E-3	-1.522679275E-1	1.524961175E-1
1.001653454E1	1.116651453E-3	2.848297516E-3	-1.570573819E-1	1.570871761E-1
1.002657454E1	-6.347141170E-3	4.619026277E-4	-1.585542691E-1	1.586819328E-1
1.003661454E1	-2.228801006E-3	5.716872993E-3	-1.507692862E-1	1.508940948E-1
1.004665554E1	-5.867872769E-3	-1.449663632E-2	-1.525643814E-1	1.533638642E-1
1.005666454E1	1.372234162E-3	-5.941593368E-3	-1.497202957E-1	1.498444276E-1
1.006670554E1	3.188454718E-3	1.121067471E-2	-1.624444216E-1	1.628620140E-1
1.007674554E1	-2.304031374E-4	3.232907262E-3	-1.557084292E-1	1.557421578E-1
1.008678554E1	-2.594082963E-3	-5.633796849E-3	-1.365482730E-1	1.366890624E-1
1.009682654E1	-9.976167600E-3	4.363187752E-3	-1.588513076E-1	1.592240537E-1
1.010686654E1	-7.851871869E-3	5.000456600E-3	-1.618456668E-1	1.621131590E-1
1.011687654E1	4.565563083E-3	1.915803663E-3	-1.607978457E-1	1.608740559E-1
1.012691654E1	-4.378280877E-3	2.424420062E-3	-1.593015432E-1	1.593801394E-1
1.013695654E1	-6.396100181E-3	6.448898711E-3	-1.540630227E-1	1.543305328E-1
1.014699654E1	-6.183172453E-3	-2.977941250E-3	-1.636431009E-1	1.637869476E-1
1.015703754E1	-5.743724504E-4	-6.747554387E-3	-1.407407266E-1	1.409035539E-1
1.016704654E1	1.073580771E-3	-6.332100579E-3	-1.468779641E-1	1.470183132E-1
1.017708754E1	-2.621197142E-4	1.994585758E-4	-1.554096365E-1	1.554099855E-1
1.018712754E1	2.304003965E-3	9.664351121E-4	-1.491221255E-1	1.491430546E-1
1.019716754E1	5.109813237E-3	5.088749556E-3	-1.570550430E-1	1.572205206E-1
1.020720854E1	-9.137128699E-3	-4.368029977E-3	-1.509178054E-1	1.512572339E-1
1.021721754E1	-8.006384543E-3	3.421452558E-3	-1.533128250E-1	1.535598607E-1
1.022725854E1	-5.234605609E-4	8.293919088E-3	-1.528631741E-1	1.530889059E-1
1.023729854E1	-1.013553164E-2	2.054245630E-4	-1.601979214E-1	1.605183641E-1
1.024733854E1	-9.130326742E-3	8.635259438E-3	-1.522638345E-1	1.527815626E-1
1.025737854E1	-7.983998386E-3	5.393288992E-3	-1.612439883E-1	1.615315930E-1
1.026741954E1	-2.193852472E-3	3.027231451E-3	-1.618427432E-1	1.618859186E-1
1.027742954E1	1.849979090E-3	1.887970003E-3	-1.513651174E-1	1.513881951E-1
1.028746954E1	-2.150982788E-3	-6.353598232E-3	-1.464253896E-1	1.465789537E-1
1.029750954E1	-4.401763387E-3	-9.626586330E-3	-1.480719656E-1	1.484498355E-1
1.030754954E1	-2.176779059E-3	-4.101575101E-3	-1.558557791E-1	1.559249343E-1
1.031759054E1	-5.892362553E-3	2.090347619E-3	-1.554072976E-1	1.555330114E-1
1.032759954E1	-7.776625513E-3	-1.271895942E-2	-1.563054299E-1	1.570147613E-1
1.033764054E1	-1.380637936E-2	-8.285276173E-4	-1.594500625E-1	1.600488207E-1
1.034768054E1	-6.636283700E-3	3.482720414E-3	-1.512165982E-1	1.514022099E-1
1.035772054E1	3.384222239E-3	2.454099250E-3	-1.561563259E-1	1.562122713E-1
1.036776154E1	-1.298529552E-3	6.727198767E-3	-1.660369509E-1	1.661782491E-1
1.037777054E1	-1.956007839E-3	1.752364393E-2	-1.578040713E-1	1.587861108E-1
1.038781154E1	-2.610233612E-5	1.052283201E-2	-1.628923184E-1	1.632318537E-1
1.039785154E1	-3.283910514E-3	-3.100385601E-3	-1.678326309E-1	1.678933842E-1
1.040789154E1	-7.408650639E-3	9.884137907E-3	-1.459774929E-1	1.464991902E-1
1.041793154E1	4.813905295E-3	6.981324241E-3	-1.519656265E-1	1.522020506E-1
1.042797254E1	4.964861674E-3	-6.112432564E-3	-1.552593631E-1	1.554589383E-1
1.043798254E1	-1.062090307E-2	2.445063475E-3	-1.540618533E-1	1.544468729E-1
1.044798146E1	-3.927147633E-3	-5.894313147E-4	-1.582543069E-1	1.583041237E-1
1.045802146E1	3.981604397E-3	-1.128508053E-3	-1.594512320E-1	1.595049281E-1
1.046806146E1	-3.685824363E-3	2.977351961E-3	-1.585536844E-1	1.586244645E-1
1.047810246E1	-2.774243443E-3	4.300759588E-3	-1.578046560E-1	1.578876259E-1
1.048811146E1	-1.054336579E-2	2.393489205E-3	-1.507687014E-1	1.511558556E-1
1.049815246E1	-2.274783875E-3	-6.978377793E-4	-1.628929031E-1	1.629102805E-1
1.050819246E1	-3.988812917E-3	3.819419537E-5	-1.527146548E-1	1.527667434E-1
1.051823246E1	-8.913742220E-3	-4.576300490E-3	-1.554078823E-1	1.557305597E-1
1.052827346E1	-9.759854882E-3	3.333995570E-3	-1.516656643E-1	1.520159335E-1
1.053828246E1	-6.825379457E-3	-1.650056848E-3	-1.549588162E-1	1.551178365E-1
1.054832346E1	-9.502481462E-3	-1.053869259E-5	-1.498693997E-1	1.501703507E-1
1.055836346E1	-9.016317457E-3	-5.497931312E-3	-1.578029019E-1	1.581558632E-1
1.056840346E1	-3.890298754E-3	-2.173665874E-3	-1.595997512E-1	1.596619549E-1
1.057844346E1	-1.324129393E-3	5.617584530E-3	-1.595997512E-1	1.597040737E-1
1.058848446E1	-8.633459592E-4	-3.044887302E-3	-1.588513076E-1	1.588828331E-1
1.059849346E1	-1.129554156E-3	-1.670983485E-3	-1.606481570E-1	1.606608180E-1
1.060853446E1	3.748841817E-3	-2.976822057E-3	-1.519667959E-1	1.520421729E-1
1.061857446E1	5.041076476E-3	7.308759182E-3	-1.485239553E-1	1.487890981E-1
1.062861446E1	1.739041877E-3	6.879020808E-3	-1.560083914E-1	1.561696621E-1
1.063865546E1	-3.760666440E-3	2.525444417E-3	-1.651394033E-1	1.652015224E-1
1.064866446E1	-3.943245749E-3	7.841175576E-3	-1.651399881E-1	1.653730597E-1
1.065870546E1	-2.192568826E-4	6.730725369E-3	-1.615468740E-1	1.616871771E-1
1.066874546E1	-5.640870610E-3	6.529763876E-3	-1.540624380E-1	1.543038951E-1
1.067878546E1	-1.452547953E-2	-1.247307030E-3	-1.558581179E-1	1.565384881E-1
1.068882646E1	-6.202943351E-3	4.735070667E-3	-1.452302188E-1	1.454397258E-1
1.069883546E1	3.030607305E-3	-4.718173128E-3	-1.416371047E-1	1.417480694E-1
1.070887646E1	-2.492359683E-3	-4.431805741E-3	-1.509178054E-1	1.510034329E-1
1.071891646E1	-4.383070569E-3	1.470672952E-2	-1.622953176E-1	1.630192299E-1
1.072895646E1	-4.711236411E-3	1.442817821E-2	-1.648388565E-1	1.655361491E-1
1.073899646E1	1.544909750E-3	2.185812551E-3	-1.642395169E-1	1.642613266E-1
1.074903746E1	1.002936813E-3	6.426455453E-5	-1.513662869E-1	1.513696232E-1
1.075904646E1	4.850123771E-3	-2.930268170E-3	-1.524141079E-1	1.525194101E-1
1.076908746E1	4.343558466E-3	-5.463802759E-3	-1.569053543E-1	1.570605292E-1
1.077912746E1	6.126077590E-4	-1.227773675E-3	-1.542109573E-1	1.542170615E-1
1.078916746E1	-6.204811719E-3	8.474675710E-3	-1.473252761E-1	1.476992106E-1
1.079920846E1	2.487067496E-3	9.730027230E-3	-1.601990908E-1	1.605135746E-1
1.080921746E1	4.385875405E-3	3.774770563E-3	-1.604990530E-1	1.606033337E-1
1.081925846E1	3.679954307E-4	-2.048626821E-4	-1.601990908E-1	1.601996445E-1
1.082929846E1	-1.055091921E-2	-6.220852733E-3	-1.563065994E-1	1.567857580E-1
1.083933846E1	-7.657981853E-3	1.123949052E-3	-1.598997134E-1	1.600869335E-1
1.084937946E1	-6.520339809E-3	-4.376138421E-3	-1.510680789E-1	1.512720393E-1
1.085938846E1	-8.044135629E-3	1.953171026E-3	-1.515165603E-1	1.517425156E-1
1.086942946E1	-5.877022748E-4	4.769395650E-3	-1.588513076E-1	1.589239770E-1
1.087946946E1	4.950303021E-3	2.960518375E-4	-1.588513076E-1	1.589286981E-1
1.088950946E1	9.577385208E-3	-1.052613021E-3	-1.552587783E-1	1.555574574E-1
1.089954946E1	-4.532026104E-4	1.326061715E-3	-1.712754714E-1	1.712812043E-1
1.090955946E1	-4.252536048E-3	1.664094734E-3	-1.742698306E-1	1.743296507E-1
1.091959946E1	-6.317834286E-3	-2.559618652E-3	-1.661866397E-1	1.663263836E-1
1.092964046E1	-1.049086876E-2	8.345301496E-4	-1.519656265E-1	1.523295979E-1
1.093968046E1	-6.900740017E-3	5.276289862E-4	-1.480737197E-1	1.482353706E-1
1.094972046E1	-4.291253295E-3	4.525342919E-3	-1.690313101E-1	1.691463194E-1
1.095976146E1	-1.108096702E-2	1.208670182E-2	-1.708275747E-1	1.716127515E-1
1.096977046E1	-6.353068328E-4	8.450770648E-3	-1.603487796E-1	1.605725700E-1
1.097981146E1	2.977920694E-3	-3.686568970E-3	-1.637916201E-1	1.638601649E-1
1.098985146E1	-3.732773394E-3	-1.005538367E-3	-1.564568728E-1	1.565046254E-1
1.099989146E1	6.185943028E-3	-1.471460955E-3	-1.588518924E-1	1.589791017E-1
1.100993146E1	4.952806360E-3	-5.540520055E-3	-1.549599856E-1	1.551380830E-1
1.101994146E1	-2.970497471E-3	1.116863871E-4	-1.510680789E-1	1.510973222E-1
1.102998246E1	-9.501268622E-4	3.421671828E-3	-1.563071841E-1	1.563475180E-1
1.104002246E1	-5.213592178E-4	-2.097245506E-3	-1.651394033E-1	1.651535431E-1
1.105006246E1	-6.842909683E-4	-9.574495861E-4	-1.625941104E-1	1.625983693E-1
1.106010246E1	-1.553054738E-3	-9.769596434E-3	-1.610960537E-1	1.613994904E-1
1.107011246E1	8.094949303E-3	3.524774686E-4	-1.685804898E-1	1.687750988E-1
1.108015246E1	-5.999403144E-4	6.315696398E-3	-1.569047695E-1	1.570329731E-1
1.109019346E1	-9.109507457E-3	3.515346050E-3	-1.540606838E-1	1.543697998E-1
1.110023346E1	-1.177656641E-2	3.320345976E-3	-1.636407620E-1	1.640975661E-1
1.111027346E1	-2.874731042E-3	-2.522264994E-3	-1.503172964E-1	1.503659386E-1
1.112031446E1	-1.299643036E-2	1.105996273E-3	-1.527111465E-1	1.532671677E-1
1.113032346E1	1.048261870E-3	1.015542587E-3	-1.555552322E-1	1.555620790E-1
1.114036446E1	-3.363108309E-4	8.580012387E-4	-1.583993179E-1	1.584019986E-1
1.115040446E1	-3.134066476E-3	-2.099059056E-3	-1.536092788E-1	1.536555855E-1
1.116044446E1	3.934527459E-3	-4.744887594E-3	-1.456751919E-1	1.458055417E-1
1.117048446E1	-5.598512557E-3	1.745896367E-4	-1.341491604E-1	1.342660458E-1
1.118049446E1	-1.318176882E-2	6.821188191E-4	-1.497162026E-1	1.502969249E-1
1.119053546E1	-5.168349347E-3	-3.238005303E-3	-1.438783425E-1	1.440075483E-1
1.120057546E1	3.386248208E-3	-2.353024646E-3	-1.311559707E-1	1.312207760E-1
1.121061546E1	-3.164599906E-4	3.938410375E-3	-1.576526284E-1	1.577021321E-1
1.122065546E1	1.388672833E-2	9.568146151E-4	-1.593009585E-1	1.599079488E-1
1.123066546E1	9.399570466E-3	1.032896027E-2	-1.434351236E-1	1.441134068E-1
1.124070546E1	-1.139400319E-2	-2.209877498E-3	-1.661883938E-1	1.665931845E-1
1.125074646E1	-1.459623313E-2	-4.941043407E-3	-1.772665286E-1	1.779350615E-1
1.126078646E1	-4.235668201E-3	1.026335268E-2	-1.622988260E-1	1.626781676E-1
1.127082646E1	-6.249245990E-3	1.037016487E-2	-1.666392142E-1	1.670784878E-1
1.128086746E1	-8.370915041E-3	1.283757110E-2	-1.756199527E-1	1.762873882E-1
1.129087646E1	-5.306706803E-3	1.599833834E-2	-1.292158645E-1	1.303105814E-1
1.130091746E1	-6.246744934E-3	1.399856775E-2	-1.326592898E-1	1.335420117E-1
1.131095746E1	-1.444612871E-2	1.011732304E-2	-1.844515872E-1	1.852928463E-1
1.132099746E1	-1.201199907E-2	6.616403167E-3	-1.828044266E-1	1.833180932E-1
1.133103746E1	4.044614998E-3	-5.615464915E-3	-1.453828311E-1	1.455474491E-1
1.134104746E1	-2.737040534E-3	-7.418412748E-3	-1.491250491E-1	1.493345389E-1
1.135108746E1	-6.334624474E-3	-6.106018899E-3	-1.747212356E-1	1.749426224E-1
1.136112846E1	-1.095386774E-3	-7.956936741E-3	-1.372990555E-1	1.375337898E-1
1.137116846E1	-7.879314953E-3	-8.481294941E-4	-1.140978885E-1	1.143727725E-1
1.138120846E1	-8.057042900E-3	5.805869442E-3	-1.558616263E-1	1.561776892E-1
1.139121846E1	-9.045866453E-3	9.275607211E-3	-1.889422488E-1	1.893859498E-1
1.140125846E1	-1.577316572E-2	1.367234793E-2	-1.666380447E-1	1.679403579E-1
1.141129946E1	-1.639590104E-2	8.049322749E-3	-1.476287466E-1	1.487543747E-1
1.142133946E1	3.607846261E-4	1.281202608E-2	-1.480772281E-1	1.486308974E-1
1.143137946E1	-1.827597502E-3	5.906944047E-3	-1.516703421E-1	1.517963266E-1
1.144142046E1	-5.161755241E-3	-4.103100859E-4	-1.572099942E-1	1.572952458E-1
1.145143471E1	2.553696062E-3	-6.835134714E-3	-1.560124844E-1	1.561830200E-1
1.146147571E1	1.515753614E-4	-5.652855118E-3	-1.404448575E-1	1.405586559E-1
1.147151571E1	-7.112464041E-3	8.079527272E-4	-1.474808121E-1	1.476544272E-1
1.148155571E1	-2.950473041E-3	4.744887594E-3	-1.618509293E-1	1.619473450E-1
1.149159571E1	7.966810770E-3	-4.325532597E-3	-1.459845096E-1	1.462657080E-1
1.150160571E1	1.479782502E-2	-2.633983358E-3	-1.395473099E-1	1.403544270E-1
1.151164571E1	3.129249376E-3	1.179949846E-5	-1.587068814E-1	1.587377288E-1
1.152168671E1	3.013424256E-3	9.837035844E-3	-1.637974674E-1	1.641202556E-1
1.153172671E1	1.535816416E-2	3.829346099E-3	-1.438888675E-1	1.447568419E-1
1.154176671E1	9.947367779E-3	2.383457576E-3	-1.479298782E-1	1.482831072E-1
1.155177671E1	5.886181863E-4	6.097444505E-3	-1.711287063E-1	1.712383118E-1
1.156181671E1	8.221984631E-4	2.983148927E-3	-2.410304153E-1	2.410502775E-1
1.157185771E1	1.687960739E-2	1.151007956E-2	-1.103527468E-1	1.122280349E-1
1.158189771E1	-3.496226112E-3	-6.373935579E-3	9.756196260E-2	9.783244451E-2
1.159193771E1	-2.804089139E-2	-2.449442948E-2	-1.320611197E-1	1.372093583E-1
1.160197871E1	-3.016014390E-2	-1.235324806E-2	-3.968598819E-1	3.981959353E-1
1.161198771E1	-3.318116725E-3	3.965051752E-4	-1.977738833E-1	1.978021134E-1
1.162202871E1	1.325400478E-2	-9.066797658E-3	-2.892676055E-2	3.308523747E-2
1.163206871E1	1.049745373E-2	3.076306949E-3	-1.706825638E-1	1.710327389E-1
1.164210871E1	-8.710722781E-3	1.706885846E-2	-2.497176236E-1	2.504518200E-1
1.165214871E1	-1.888194984E-2	1.292838567E-2	-1.489771146E-1	1.507244235E-1
1.166215871E1	-1.575740565E-2	1.265031402E-2	-9.254388213E-2	9.472431788E-2
1.167219871E1	-7.391097571E-3	7.142287125E-3	-1.551143521E-1	1.554545040E-1
1.168223971E1	5.519703054E-3	2.046870830E-2	-2.119954813E-1	2.130528554E-1
1.169227971E1	6.364929497E-3	4.681778778E-3	-2.001694876E-1	2.003253732E-1
1.170231971E1	5.598469160E-3	-1.198188591E-2	-1.393952823E-1	1.400212597E-1
1.171232971E1	-3.450108483E-4	-1.030832143E-2	-1.105059439E-1	1.109862341E-1
1.172236971E1	-1.513387090E-2	-3.454736006E-3	-1.536162955E-1	1.543986253E-1
1.173241071E1	-1.249503162E-2	-9.512159061E-3	-1.938819766E-1	1.945169089E-1
1.174245071E1	-5.972213591E-3	-1.215297635E-2	-1.305630630E-1	1.312633825E-1
1.175249071E1	-3.277293567E-3	1.750427959E-3	-1.093072647E-1	1.093703925E-1
1.176253071E1	-4.732779746E-3	3.155294610E-3	-1.884914285E-1	1.885772354E-1
1.177254071E1	-2.204443698E-3	-2.883997508E-3	-1.934305716E-1	1.934646299E-1
1.178258171E1	5.350131516E-3	4.199721529E-3	-1.145440310E-1	1.147457913E-1
1.179262171E1	1.415323117E-3	7.185643315E-3	-1.244234866E-1	1.246388408E-1
1.180266171E1	3.055467107E-4	8.559889742E-3	-2.052553958E-1	2.054340346E-1
1.181270171E1	-2.733431705E-3	-3.220701199E-3	-2.040584707E-1	2.041021902E-1
1.182271171E1	5.992806754E-3	-3.290310474E-3	-1.335550833E-1	1.337299523E-1
1.183275171E1	2.406389625E-3	-6.217134269E-3	-1.257701004E-1	1.259466618E-1
1.184279271E1	-3.933609263E-3	9.010988725E-3	-1.723227078E-1	1.726029745E-1
1.185283271E1	-2.174919827E-3	9.516983014E-3	-1.908835244E-1	1.911329986E-1
1.186287271E1	-5.808532666E-3	6.098577403E-3	-1.486707205E-1	1.489090824E-1
1.187288271E1	-9.150218696E-3	4.744540416E-3	-1.569024307E-1	1.572406115E-1
1.188292271E1	-1.782882747E-2	4.857122158E-3	-1.750147659E-1	1.759875762E-1
1.189296371E1	-8.083375928E-3	6.608440904E-3	-1.618415737E-1	1.621780116E-1
1.190300371E1	3.893448485E-3	1.399827082E-2	-1.378907937E-1	1.386541796E-1
1.191304371E1	4.991210690E-3	3.181250766E-5	-1.440274465E-1	1.441139082E-1
1.192308371E1	-3.392892564E-4	-9.084476349E-3	-1.820472121E-1	1.822740527E-1
1.193309371E1	2.824319364E-3	-1.667675240E-2	-1.699218410E-1	1.707615967E-1
1.194313471E1	-5.810067561E-3	-8.230394572E-3	-1.345947182E-1	1.349712356E-1
1.195317471E1	5.121128513E-3	-4.565738956E-3	-1.197749501E-1	1.199712908E-1
1.196321471E1	3.605511943E-3	-1.100921072E-6	-1.513586855E-1	1.514016228E-1
1.197325471E1	2.016976483E-3	8.236351423E-5	-1.854877138E-1	1.854986980E-1
1.198326471E1	3.793113919E-3	7.458224064E-3	-1.829424208E-1	1.831336729E-1
1.199330471E1	-1.864393847E-4	4.721000805E-3	-1.652791518E-1	1.653466680E-1
1.200334571E1	-1.038914776E-2	2.988754031E-3	-1.745586830E-1	1.748931127E-1
1.201338571E1	-1.731258914E-2	6.708341497E-3	-1.567457253E-1	1.578415344E-1
1.202342571E1	-2.223740652E-2	4.018471548E-3	-1.292030007E-1	1.311642701E-1
1.203343571E1	-2.166914624E-2	3.829802913E-3	-1.477638173E-1	1.493933231E-1
1.204347571E1	-1.267235071E-2	1.181178675E-3	-1.748563063E-1	1.753188852E-1
1.205351671E1	-3.225902023E-3	6.722653471E-4	-1.797954494E-1	1.798256433E-1
1.206355671E1	1.202103028E-3	-6.102135982E-3	-1.589887172E-1	1.591103181E-1
1.207359671E1	7.220808836E-4	3.119252007E-3	-1.543483669E-1	1.543815711E-1
1.208363671E1	-1.218454675E-3	2.266102131E-3	-1.500073940E-1	1.500294574E-1
1.209364671E1	-4.712492649E-3	8.575882791E-3	-1.550968105E-1	1.554051929E-1
1.210368671E1	7.054734207E-4	5.879553496E-3	-1.480614406E-1	1.481798132E-1
1.211372771E1	1.367854232E-2	4.318250986E-3	-1.601868117E-1	1.608277478E-1
1.212376771E1	1.453649331E-2	8.394144019E-3	-1.637799257E-1	1.646378916E-1
1.213380771E1	1.767281645E-2	3.000005353E-3	-1.600371230E-1	1.610379123E-1
1.214381771E1	5.785029600E-3	-3.576472295E-3	-1.465651381E-1	1.467228593E-1
1.215385771E1	-3.089748693E-3	-6.107435022E-3	-1.444683266E-1	1.446303726E-1
1.216389871E1	-6.101457614E-3	-4.804830691E-3	-1.558440846E-1	1.560374727E-1
1.217393871E1	-9.737783927E-3	-2.185118194E-2	-1.721589857E-1	1.738131611E-1
1.218397871E1	-1.173918763E-2	-1.456688513E-2	-1.842826027E-1	1.852298041E-1
1.219398871E1	1.659672777E-3	-8.941575880E-3	-1.694616652E-1	1.697055163E-1
1.220402871E1	1.089962111E-3	-2.391689359E-3	-1.288954371E-1	1.289222320E-1
1.221406971E1	-4.654148400E-3	1.838917346E-3	-1.263507289E-1	1.264497900E-1
1.222410971E1	-1.557998605E-2	5.972766336E-3	-1.848784339E-1	1.856298609E-1
1.223414971E1	-1.775871113E-2	1.891623143E-2	-1.836803395E-1	1.855038079E-1
1.224418971E1	-7.353944911E-3	2.456471941E-2	-1.655674195E-1	1.675412676E-1
1.225419971E1	-1.766647131E-3	2.329328804E-2	-1.434146583E-1	1.453047230E-1
1.226423971E1	-5.448166025E-3	1.001713922E-2	-1.372780055E-1	1.377507763E-1
1.227428071E1	-1.203183164E-2	-6.814308576E-3	-1.458108473E-1	1.464650230E-1
1.228432071E1	5.727203835E-3	-3.748293640E-3	-1.616784364E-1	1.618232597E-1
1.229436071E1	5.808630881E-3	-1.260008278E-2	-1.633244276E-1	1.639126930E-1
1.230437071E1	7.031144346E-3	-1.440246417E-2	-1.592828321E-1	1.600871281E-1
1.231441071E1	1.255030608E-2	-1.139256880E-2	-1.649715883E-1	1.658400607E-1
1.232445171E1	8.381547381E-3	-1.059985994E-2	-1.697616273E-1	1.702986127E-1
1.233449171E1	1.247231884E-2	-6.181886522E-3	-1.395245057E-1	1.402171964E-1
1.234453171E1	5.140995341E-3	-9.910020973E-3	-1.434164125E-1	1.438502892E-1
1.235454171E1	-2.755813294E-3	1.156382826E-3	-1.697610426E-1	1.697873473E-1
1.236458171E1	5.653752757E-3	4.381478573E-3	-1.814361781E-1	1.815771158E-1
1.237462271E1	2.191812799E-3	3.109864485E-3	-1.690114295E-1	1.690542476E-1
1.238466271E1	-1.057878484E-2	4.015273852E-3	-1.491022450E-1	1.495309753E-1
1.239470271E1	-9.149350750E-3	7.210407187E-3	-1.488034523E-1	1.492587284E-1
1.240474271E1	-1.814852399E-2	2.043419145E-4	-1.432649696E-1	1.444100488E-1
1.241475271E1	-1.096966207E-2	-1.971324803E-3	-1.476053578E-1	1.480255426E-1
1.242479271E1	-1.291251596E-2	-5.432209522E-3	-1.565855116E-1	1.572108915E-1
1.243483371E1	-8.186140743E-3	2.589631313E-3	-1.612264466E-1	1.614549045E-1
1.244485392E1	-5.654280377E-3	2.017665358E-2	-1.714046949E-1	1.726807392E-1
1.245489392E1	-8.814750686E-3	1.651445105E-2	-1.452091688E-1	1.464108248E-1
1.246490392E1	-4.144451637E-3	4.389404291E-3	-1.447606874E-1	1.448865071E-1
1.247494392E1	6.169317293E-3	1.705797259E-3	-1.568854737E-1	1.570159931E-1
1.248498492E1	2.493131699E-3	-1.758924695E-3	-1.693090528E-1	1.693365433E-1
1.249502492E1	1.045216978E-2	-7.527696295E-3	-1.823313868E-1	1.827858000E-1
1.250506492E1	7.284401874E-3	-7.839503638E-3	-1.639202589E-1	1.642692047E-1
1.251507492E1	-3.300648169E-3	-7.210836592E-3	-1.591290504E-1	1.593265361E-1
1.252511492E1	-7.099399169E-3	-1.190708266E-2	-1.461055470E-1	1.467617489E-1
1.253515592E1	-2.736921762E-3	-2.587306132E-3	-1.484993970E-1	1.485471501E-1
1.254519592E1	-1.181966679E-3	-3.122618725E-3	-1.504465199E-1	1.504835643E-1
1.255523592E1	-1.232565194E-2	-4.269307964E-3	-1.655639112E-1	1.660769622E-1
1.256527592E1	-8.716590554E-3	-3.831155081E-3	-1.714017713E-1	1.716660243E-1
1.257528592E1	-1.806555748E-2	4.571640990E-3	-1.628700989E-1	1.639327100E-1
1.258532592E1	-8.755556764E-3	1.105852376E-2	-1.529906434E-1	1.536394731E-1
1.259536692E1	-3.101712645E-3	3.321003788E-3	-1.405658948E-1	1.406393276E-1
1.260540692E1	-3.549812646E-3	1.097214029E-2	-1.571801734E-1	1.576026521E-1
1.261544692E1	-4.205294657E-3	4.738071933E-3	-1.670590442E-1	1.671791198E-1
1.262545692E1	3.387563832E-3	2.067022710E-3	-1.661609119E-1	1.662082935E-1
1.263549692E1	5.810528942E-3	-4.917512932E-3	-1.507435584E-1	1.509356306E-1
1.264553792E1	5.910214833E-3	1.207500282E-3	-1.586770606E-1	1.587916820E-1
1.265557792E1	-2.793964092E-4	-1.555496408E-4	-1.519416529E-1	1.519419894E-1
1.266561792E1	-4.451816466E-3	1.369596063E-3	-1.479000574E-1	1.479733809E-1
1.267562792E1	-2.375570687E-3	7.736382508E-3	-1.643652320E-1	1.645643474E-1
1.268566792E1	-9.809389478E-5	-4.144739429E-3	-1.684068274E-1	1.684578524E-1
1.269570892E1	-5.018685751E-3	-1.372793759E-3	-1.552336353E-1	1.553208077E-1
1.270574892E1	-4.384486692E-3	-2.358643454E-3	-1.588249952E-1	1.589030082E-1
1.271578892E1	-6.493406072E-3	-3.827587366E-3	-1.496939832E-1	1.498836327E-1
1.272582892E1	-4.077553551E-3	-8.727672854E-3	-1.601727784E-1	1.604622001E-1
1.273583892E1	-3.160235051E-3	-4.598437683E-3	-1.712503284E-1	1.713412026E-1
1.274587892E1	-9.335331037E-4	-6.462297058E-3	-1.619702125E-1	1.621017658E-1
1.275591992E1	9.517467236E-3	-3.637036658E-3	-1.571801734E-1	1.575100541E-1
1.276595992E1	1.293346087E-2	-5.888886200E-3	-1.658615345E-1	1.664692224E-1
1.277599992E1	-1.299934254E-3	-4.310480584E-3	-1.588261646E-1	1.588899639E-1
1.278600992E1	3.462214046E-4	1.972247567E-4	-1.413125843E-1	1.413131460E-1
1.279604992E1	7.465220166E-3	7.969161076E-4	-1.514914173E-1	1.516773355E-1
1.280609092E1	-8.072195412E-4	6.442169845E-4	-1.654124683E-1	1.654156924E-1
1.281613092E1	1.272326717E-3	-6.594101521E-3	-1.722975647E-1	1.724283962E-1
1.282617092E1	-1.661248785E-3	-6.819059439E-3	-1.690038282E-1	1.691494997E-1
1.283618092E1	-1.350853453E-2	1.710237488E-3	-1.555318433E-1	1.561267424E-1
1.284622092E1	-1.547138087E-2	-1.607230562E-3	-1.579274476E-1	1.586916050E-1
1.285626092E1	-1.536220924E-2	6.871332633E-3	-1.561305982E-1	1.570349527E-1
1.286630192E1	-7.824766827E-3	5.132603673E-3	-1.410114527E-1	1.413216204E-1
1.287634192E1	-7.935050796E-3	-3.159839907E-3	-1.456506336E-1	1.459008454E-1
1.288638192E1	-2.106719823E-3	-5.461299419E-3	-1.585244483E-1	1.586324833E-1
1.289639192E1	5.949229009E-3	-5.847293311E-3	-1.465505201E-1	1.467877348E-1
1.290643192E1	1.257540799E-2	-1.255780010E-2	-1.507429737E-1	1.517869670E-1
1.291647292E1	1.393886219E-2	-4.681134671E-3	-1.516405213E-1	1.523517397E-1
1.292651292E1	2.337639160E-3	-5.108091049E-5	-1.769373304E-1	1.769527791E-1
1.293655292E1	1.620226912E-3	-6.715157158E-3	-1.767870569E-1	1.769219658E-1
1.294656292E1	-4.418256646E-3	-4.508267222E-3	-1.570281458E-1	1.571549682E-1
1.295660292E1	-7.508309120E-3	-1.007390746E-2	-1.531374085E-1	1.536519580E-1
1.296664392E1	-1.571261963E-2	-1.559234058E-2	-1.309846473E-1	1.328419562E-1
1.297668392E1	-1.114627539E-2	-2.276759595E-3	-1.339795911E-1	1.344617192E-1
1.298672392E1	-4.181252550E-3	4.671230949E-3	-1.592781544E-1	1.594014860E-1
1.299673392E1	-4.475959071E-3	6.325495052E-3	-1.696066761E-1	1.697835995E-1
1.300677392E1	-2.386440570E-4	9.632570590E-3	-1.576315784E-1	1.579257987E-1
1.301681392E1	5.154884763E-3	9.218532904E-3	-1.583806068E-1	1.587323873E-1
1.302685492E1	-5.277806483E-3	1.067822634E-2	-1.571825123E-1	1.576331879E-1
1.303689492E1	-8.591039870E-3	1.111244149E-2	-1.640681934E-1	1.646683467E-1
1.304693492E1	-3.073920098E-3	6.450789920E-3	-1.624216175E-1	1.625787302E-1
1.305694492E1	-7.745313216E-3	3.386748419E-3	-1.449080372E-1	1.451543977E-1
1.306698492E1	-2.891404743E-3	-1.388225840E-2	-1.480520850E-1	1.487296111E-1
1.307702592E1	-4.362116524E-3	-2.229746610E-2	-1.615240699E-1	1.631141631E-1
1.308706592E1	2.614941078E-3	-1.250587866E-2	-1.531409168E-1	1.536729492E-1
1.309710592E1	-1.721801728E-3	-1.519784538E-2	-1.577812672E-1	1.585208736E-1
1.310711592E1	-6.056269601E-3	-4.074933724E-3	-1.745458192E-1	1.746983872E-1
1.311715592E1	-4.530223974E-3	-1.517425552E-3	-1.702042615E-1	1.702713016E-1
1.312719692E1	-2.529699637E-3	1.482396619E-2	-1.603236365E-1	1.610273821E-1
1.313723692E1	-9.252620344E-3	1.401858532E-2	-1.528380311E-1	1.537582370E-1
1.314727692E1	-2.475053295E-3	1.431416664E-2	-1.396654236E-1	1.404188442E-1
1.315728692E1	1.632464952E-3	7.994162492E-3	-1.339766675E-1	1.342248823E-1
1.316732692E1	-2.130471852E-3	-1.031704657E-3	-1.474492371E-1	1.474682367E-1
1.317736692E1	-1.038129742E-2	-1.124906990E-2	-1.718490833E-1	1.725294767E-1
1.318740792E1	-1.036712020E-2	-9.067021497E-3	-1.609223914E-1	1.615106935E-1
1.319744792E1	-7.968130962E-3	-5.479553696E-3	-1.646646094E-1	1.649483259E-1
1.320748792E1	-5.896798214E-3	-1.371898404E-3	-1.675081104E-1	1.676174853E-1
1.321749792E1	9.468117650E-3	-7.679221407E-4	-1.484976429E-1	1.488011589E-1
1.322753792E1	1.129686404E-2	6.887453590E-3	-1.477491993E-1	1.483404262E-1
1.323757892E1	2.147715657E-2	2.364216582E-3	-1.514914173E-1	1.530245316E-1
1.324761892E1	1.505999270E-2	-6.540512703E-3	-1.517913795E-1	1.526767977E-1
1.325765892E1	1.023999580E-2	-1.102680719E-2	-1.510435206E-1	1.517912814E-1
1.326766892E1	2.495593925E-3	-1.024838290E-2	-1.799334437E-1	1.802423410E-1
1.327770892E1	-4.003606830E-3	-8.447440476E-3	-1.934054285E-1	1.936312162E-1
1.328774992E1	-4.428304264E-3	1.742059132E-3	-1.676577991E-1	1.677253179E-1
1.329778992E1	-1.162967111E-2	6.584024210E-3	-1.351747620E-1	1.358337768E-1
1.330782992E1	-2.022105359E-2	2.815735834E-3	-1.339772522E-1	1.355238853E-1
1.331783992E1	-1.759842890E-2	5.377949188E-3	-1.393642920E-1	1.405739411E-1
1.332787992E1	-2.574085029E-2	3.915048921E-3	-1.568767029E-1	1.590226993E-1
1.333791992E1	-1.889120260E-2	-1.087032108E-2	-1.698978674E-1	1.712901830E-1
1.334796092E1	-3.327147933E-3	-1.295708728E-2	-1.745382178E-1	1.750501228E-1
1.335800092E1	3.490052274E-3	-8.023937610E-3	-1.532830042E-1	1.535325484E-1
1.336804092E1	1.048735129E-2	-1.135172508E-2	-1.550786841E-1	1.558468622E-1
1.337805092E1	2.316662273E-2	-7.642365675E-3	-1.559762317E-1	1.578723631E-1
1.338809092E1	2.904203978E-2	1.138050891E-3	-1.514844006E-1	1.542473950E-1
1.339813192E1	3.214732243E-2	7.430911171E-3	-1.439999646E-1	1.477317115E-1
1.340817192E1	3.340221256E-2	8.366397154E-3	-1.257385254E-1	1.303682522E-1
1.341821192E1	1.994939332E-2	1.141687129E-2	-1.149632764E-1	1.172385524E-1
1.342822192E1	4.266971361E-3	1.312832847E-2	-1.275388831E-1	1.282837743E-1
1.343826192E1	-1.911601662E-2	-7.449804987E-3	-1.558312207E-1	1.571759875E-1
1.344826429E1	-3.840102235E-2	-1.587912366E-2	-1.800819629E-1	1.848142269E-1
1.345830529E1	-3.896400872E-2	-8.710208866E-3	-1.902602112E-1	1.944042430E-1
1.346834529E1	-4.213780428E-2	-1.558666695E-3	-1.696031678E-1	1.747662968E-1
1.347835529E1	-3.467634826E-2	1.838236693E-2	-1.356244129E-1	1.411890290E-1
1.348839529E1	-3.275409667E-2	2.416276901E-2	-1.422101319E-1	1.479202213E-1
1.349843529E1	-4.885652002E-2	2.367988036E-2	-1.791826612E-1	1.872274615E-1
1.350847629E1	-4.082097477E-2	2.726477630E-2	-1.841218042E-1	1.905532965E-1
1.351851629E1	-2.618496002E-2	2.698765482E-2	-1.678051490E-1	1.719667225E-1
1.352855629E1	1.155295153E-2	1.689269281E-2	-1.654089600E-1	1.666702067E-1
1.353856629E1	4.277268399E-2	-4.363854700E-3	-1.513382202E-1	1.573270563E-1
1.354860629E1	6.242019653E-2	-1.990613763E-2	-1.380159241E-1	1.527773889E-1
1.355864729E1	6.875870164E-2	-3.719906322E-2	-1.321774793E-1	1.535656712E-1
1.356868729E1	5.324734043E-2	-4.923021192E-2	-1.282855725E-1	1.473637715E-1
1.357872729E1	4.899734655E-2	-5.111725002E-2	-1.522363526E-1	1.678976482E-1
1.358873729E1	4.708772815E-2	-3.680635873E-2	-1.698990369E-1	1.801045389E-1
1.359877729E1	3.356979468E-2	-1.738977924E-2	-1.630133557E-1	1.673400421E-1
1.360881729E1	2.074333557E-2	-2.890612171E-3	-1.609188831E-1	1.622760874E-1
1.361885829E1	4.050441657E-3	2.545428190E-2	-1.389152259E-1	1.412861158E-1
1.362889829E1	-2.975648274E-2	4.428629058E-2	-1.350221497E-1	1.451816266E-1
1.363890829E1	-5.032719069E-2	3.752784119E-2	-1.588226563E-1	1.707799787E-1
1.364894829E1	-6.760427854E-2	3.722178056E-2	-1.571766651E-1	1.751008380E-1
1.365898829E1	-7.952481894E-2	2.594296752E-2	-1.722958106E-1	1.915282766E-1
1.366902929E1	-6.462895027E-2	1.267545248E-2	-1.639126575E-1	1.766491653E-1
1.367906929E1	-4.198649387E-2	5.910164583E-3	-1.549307495E-1	1.606279330E-1
1.368907929E1	-2.570464552E-2	6.835541278E-3	-1.522351831E-1	1.545412709E-1
1.369911929E1	-1.329390517E-2	-8.232313190E-3	-1.522345984E-1	1.530355248E-1
1.370915929E1	3.024472296E-3	-4.879880617E-3	-1.555271655E-1	1.556330938E-1
1.371920029E1	1.960835903E-2	-3.354689232E-3	-1.601675159E-1	1.613981872E-1
1.372924029E1	2.774999013E-2	-5.342829349E-3	-1.598681384E-1	1.623466337E-1
1.373928029E1	4.944597417E-2	-7.797559001E-3	-1.558271277E-1	1.636697896E-1
1.374929029E1	5.912272779E-2	-1.198201382E-2	-1.648090357E-1	1.755023756E-1
1.375933029E1	5.358045357E-2	-7.062111748E-3	-1.582221472E-1	1.671974470E-1
1.376937029E1	4.587421620E-2	-1.458255841E-2	-1.546296179E-1	1.619487989E-1
1.377941129E1	2.123177679E-2	-2.022368255E-2	-1.454986060E-1	1.484238189E-1
1.378945129E1	-5.256861574E-3	-2.339763800E-2	-1.544799292E-1	1.563302037E-1
1.379946129E1	-1.802933900E-2	-1.782448317E-2	-1.480433142E-1	1.501985091E-1
1.380950129E1	-2.484166044E-2	-1.142838756E-2	-1.544805139E-1	1.568819471E-1
1.381954129E1	-3.838342588E-2	4.526096662E-3	-1.410091138E-1	1.462099282E-1
1.382958229E1	-3.301633059E-2	1.228896523E-2	-1.468475586E-1	1.510142451E-1
1.383962229E1	-3.394705429E-2	2.501332875E-2	-1.733418775E-1	1.783969607E-1
1.384963229E1	-4.171298579E-2	2.892687476E-2	-1.676531214E-1	1.751693648E-1
1.385967229E1	-4.764788227E-2	2.264728035E-2	-1.651084131E-1	1.733320746E-1
1.386971229E1	-2.885072163E-2	1.802194547E-2	-1.556780237E-1	1.593511899E-1
1.387975329E1	-2.255138373E-2	1.324799082E-2	-1.591208643E-1	1.612560809E-1
1.388979329E1	8.987832838E-3	1.078703023E-2	-1.701984143E-1	1.707765833E-1
1.389983329E1	2.939093126E-2	-5.528729693E-3	-1.559779859E-1	1.588191606E-1
1.390984329E1	3.288759135E-2	-1.514713449E-2	-1.514867395E-1	1.557538494E-1
1.391988329E1	3.726060973E-2	-2.012810798E-2	-1.703481030E-1	1.755333871E-1
1.392992329E1	3.269440026E-2	-2.381156605E-2	-1.630133557E-1	1.679561509E-1
1.393996429E1	2.755215553E-2	-1.360115351E-2	-1.396625000E-1	1.430025404E-1
1.395000429E1	2.359247819E-2	-1.759043466E-2	-1.574760425E-1	1.602021610E-1
1.396001429E1	2.406086529E-2	-6.648649648E-4	-1.637629688E-1	1.655224372E-1
1.397005429E1	1.421307377E-2	1.334933038E-3	-1.651095825E-1	1.657255797E-1
1.398009429E1	-3.971540791E-3	-5.540396716E-3	-1.693014514E-1	1.694386337E-1
1.399013529E1	-2.302350071E-2	-5.450856658E-3	-1.655586487E-1	1.672407235E-1
1.400017529E1	-3.349432677E-2	-5.803320422E-3	-1.649604785E-1	1.684265654E-1
1.401018529E1	-3.298290096E-2	-1.767841699E-3	-1.636126953E-1	1.669134839E-1
1.402022529E1	-4.054370712E-2	1.321047271E-2	-1.734921509E-1	1.786556330E-1
1.403026529E1	-3.092011520E-2	2.006466113E-2	-1.514873242E-1	1.559071953E-1
1.404030629E1	-1.401465444E-2	1.792510096E-2	-1.532841736E-1	1.549637302E-1
1.405034629E1	-1.533501741E-2	2.196884802E-2	-1.597207886E-1	1.619522255E-1
1.406038629E1	-1.058513227E-2	2.705349995E-2	-1.588226563E-1	1.614576509E-1
1.407039629E1	-3.196213699E-3	1.733854301E-2	-1.655592334E-1	1.664953472E-1
1.408043629E1	2.546243146E-3	1.203102079E-2	-1.624157703E-1	1.628806657E-1
1.409047629E1	5.709947697E-3	1.080612504E-2	-1.606206751E-1	1.610849996E-1
1.410051729E1	1.040900089E-2	-1.237430717E-3	-1.746919996E-1	1.750062092E-1
1.411055729E1	1.044909771E-2	-9.740840010E-3	-1.628665906E-1	1.634918773E-1
1.412056729E1	-8.419282478E-4	-1.341501562E-2	-1.558323902E-1	1.564110141E-1
1.413060729E1	1.780397224E-3	-1.825482454E-2	-1.407138294E-1	1.419041586E-1
1.414064729E1	-2.870354766E-3	-2.138974069E-2	-1.580777210E-1	1.595441187E-1
1.415068829E1	-4.969560003E-3	-1.635208575E-2	-1.582268250E-1	1.591471501E-1
1.416072829E1	-8.003696194E-4	-1.036503942E-2	-1.582256556E-1	1.585668083E-1
1.417073829E1	-7.535898385E-3	-3.317225939E-3	-1.607703638E-1	1.609810661E-1
1.418077829E1	-1.327164692E-2	2.740224525E-3	-1.525380689E-1	1.531388517E-1
1.419081829E1	-2.799496563E-2	8.890006179E-3	-1.514902478E-1	1.543115210E-1
1.420085829E1	-2.013152267E-2	8.665509643E-3	-1.550816077E-1	1.566227133E-1
1.421089929E1	-1.141279194E-2	1.344155650E-2	-1.631642139E-1	1.641142528E-1
1.422093929E1	-1.460210547E-2	3.984831786E-3	-1.613679492E-1	1.620762642E-1
1.423094929E1	-9.212062138E-3	-5.406764997E-3	-1.546319568E-1	1.550004428E-1
1.424098929E1	-7.036578145E-3	-6.838711565E-3	-1.556791931E-1	1.559881168E-1
1.425102929E1	-4.519486567E-3	-9.146927353E-3	-1.399612927E-1	1.403326602E-1
1.426107029E1	4.268063146E-3	-6.906763106E-3	-1.477451062E-1	1.479680241E-1
1.427111029E1	6.609797641E-3	1.115639153E-2	-1.673537439E-1	1.678553845E-1
1.428112029E1	9.817936462E-3	7.650464983E-3	-1.682518762E-1	1.687116337E-1
1.429116029E1	5.630126351E-3	-7.260642992E-3	-1.582233167E-1	1.584898520E-1
1.430120029E1	2.638859844E-3	5.205269032E-3	-1.610679871E-1	1.611736792E-1
1.431124129E1	3.669045595E-3	1.157952438E-2	-1.703486878E-1	1.707812130E-1
1.432128129E1	3.016409534E-4	9.604526795E-3	-1.564282215E-1	1.567230883E-1
1.433129129E1	5.548002664E-5	3.328938643E-4	-1.634635913E-1	1.634639397E-1
1.434133129E1	-2.410128645E-3	-6.212890469E-3	-1.600213355E-1	1.601600341E-1
1.435137129E1	2.150167376E-3	-1.582574498E-2	-1.688529700E-1	1.696066122E-1
1.436141129E1	-4.644726617E-3	-1.701573102E-2	-1.669070166E-1	1.678364108E-1
1.437145229E1	-1.171294597E-2	-1.684625770E-2	-1.657095069E-1	1.669749387E-1
1.438149229E1	-8.265694852E-3	-4.732649554E-3	-1.625660437E-1	1.628448288E-1
1.439150229E1	-3.480984522E-3	3.386771260E-3	-1.520866638E-1	1.521641902E-1
1.440154229E1	4.577481353E-3	6.655894713E-3	-1.492425781E-1	1.494610364E-1
1.441158229E1	-7.595693017E-4	1.065447659E-2	-1.505897766E-1	1.509681279E-1
1.442162329E1	-7.766913653E-3	1.361859009E-2	-1.627145630E-1	1.634681007E-1
1.443166329E1	-7.282152066E-3	7.828672584E-3	-1.709474427E-1	1.712814818E-1
1.444167329E1	-1.052759430E-2	5.161328120E-3	-1.568767029E-1	1.573142380E-1
1.445169417E1	-1.005838722E-2	3.600144382E-3	-1.541811365E-1	1.545508170E-1
1.446173417E1	-1.893609369E-3	5.457672318E-3	-1.561276746E-1	1.562345119E-1
1.447177517E1	-3.011126483E-3	-7.985967253E-3	-1.568761182E-1	1.571081125E-1
1.448181517E1	-7.485358799E-3	-2.663849839E-3	-1.541823059E-1	1.543868847E-1
1.449182517E1	2.684356207E-3	-1.456596237E-3	-1.507394654E-1	1.507704011E-1
1.450186517E1	-3.000754528E-3	-1.326664253E-2	-1.492425781E-1	1.498611206E-1
1.451190517E1	-7.419965914E-3	1.245557433E-3	-1.652586865E-1	1.654298667E-1
1.452194517E1	-5.675042560E-4	-8.781056106E-3	-1.715456128E-1	1.717711451E-1
1.453198617E1	-8.032087167E-4	-8.653052333E-3	-1.713959241E-1	1.716160926E-1
1.454202617E1	4.069230405E-3	3.013399132E-3	-1.585232788E-1	1.586041271E-1
1.455203617E1	4.145735283E-3	5.563730760E-3	-1.589717603E-1	1.591231058E-1
1.456207617E1	-2.572594446E-3	-5.066977814E-5	-1.496916443E-1	1.497137575E-1
1.457211617E1	-4.512035935E-3	-1.042748129E-2	-1.510400122E-1	1.514667493E-1
1.458215717E1	-1.121935645E-2	-2.382032317E-3	-1.591237879E-1	1.595366037E-1
1.459219717E1	-6.737993276E-3	-2.094536601E-3	-1.483473694E-1	1.485150822E-1
1.460220717E1	-7.785661288E-3	1.366731841E-3	-1.516405213E-1	1.518464098E-1
1.461224717E1	-7.727262222E-3	5.960071483E-3	-1.547839844E-1	1.550913114E-1
1.462228717E1	4.909856734E-4	5.876223324E-4	-1.496945679E-1	1.496965265E-1
1.463232817E1	-7.310202713E-3	-2.264749962E-3	-1.511914551E-1	1.513850199E-1
1.464236817E1	-1.354380968E-2	1.199560859E-2	-1.438567078E-1	1.449899369E-1
1.465237817E1	-5.610471941E-3	9.985294738E-3	-1.568796265E-1	1.572971733E-1
1.466241817E1	-6.562293582E-3	1.989371229E-2	-1.727472156E-1	1.740127122E-1
1.467245817E1	-8.974222073E-3	1.443995944E-2	-1.571795887E-1	1.580964016E-1
1.468249817E1	-1.023084810E-2	2.888003765E-3	-1.580777210E-1	1.584347711E-1
1.469253917E1	-1.113707060E-2	9.016589262E-5	-1.639149964E-1	1.642929351E-1
1.470257917E1	4.744969821E-4	-1.167264129E-3	-1.555330127E-1	1.555381166E-1
1.471258917E1	4.894062399E-3	-1.494139016E-2	-1.622684205E-1	1.630283327E-1
1.472262917E1	-6.012125406E-5	-1.773074043E-2	-1.498436719E-1	1.508890612E-1
1.473266917E1	-1.650045428E-3	-1.255617385E-2	-1.531368238E-1	1.536595814E-1
1.474271017E1	4.294311663E-3	-1.716203475E-3	-1.691535169E-1	1.692167212E-1
1.475275017E1	6.688840119E-3	-7.112196805E-3	-1.631653833E-1	1.634572306E-1
1.476276017E1	2.072742018E-3	5.049833595E-3	-1.489443702E-1	1.490443641E-1
1.477280017E1	1.334030831E-3	6.686821003E-3	-1.600213355E-1	1.601665415E-1
1.478284017E1	1.235932368E-3	9.526745123E-3	-1.544828528E-1	1.547812593E-1
1.479288117E1	-2.727235027E-3	1.077431710E-2	-1.604704016E-1	1.608548213E-1
1.480292117E1	-1.012574212E-2	6.747234617E-3	-1.610685718E-1	1.615275229E-1
1.481293117E1	-6.876697910E-3	2.805425548E-3	-1.463990772E-1	1.465873432E-1
1.482297117E1	-8.329692171E-3	-2.123146844E-3	-1.496910596E-1	1.499376699E-1
1.483301117E1	-7.716766926E-3	1.522879908E-4	-1.552301270E-1	1.554218904E-1
1.484305117E1	-8.184260954E-3	5.050989334E-4	-1.562779480E-1	1.564929209E-1
1.485309217E1	-1.737700444E-2	-6.731543066E-3	-1.478959644E-1	1.490653891E-1
1.486310117E1	-1.972827720E-3	-5.728169996E-3	-1.508897388E-1	1.510113150E-1
1.487314217E1	1.057530621E-3	1.543468502E-3	-1.520884180E-1	1.520999262E-1
1.488318217E1	1.342847336E-3	4.653538554E-3	-1.597231275E-1	1.597965460E-1
1.489322217E1	3.343479023E-3	-4.446227350E-3	-1.694534791E-1	1.695447709E-1
1.490326317E1	2.730880401E-3	-6.691914476E-3	-1.681056958E-1	1.682610008E-1
1.491330317E1	-7.452184986E-3	-6.303919740E-3	-1.567299378E-1	1.570335883E-1
1.492331317E1	-1.054155224E-2	-6.950379680E-3	-1.579274476E-1	1.584314072E-1
1.493335317E1	-6.447962243E-3	-6.903629364E-3	-1.540361255E-1	1.543255141E-1
1.494339317E1	-1.203714438E-2	4.863531254E-3	-1.453547645E-1	1.459333901E-1
1.495343317E1	-1.000107308E-2	-6.272532069E-3	-1.607727027E-1	1.612055460E-1
1.496347417E1	-7.686829639E-3	-5.592669910E-3	-1.702025074E-1	1.704677648E-1
1.497348417E1	-9.665949969E-4	1.020622356E-3	-1.709515357E-1	1.709573149E-1
1.498352417E1	3.877645014E-3	-3.219106919E-3	-1.624186939E-1	1.624968643E-1
1.499356417E1	-6.426884858E-3	3.929050262E-3	-1.604727405E-1	1.606494405E-1
1.500360417E1	2.552092646E-3	5.023772372E-3	-1.573298621E-1	1.574307371E-1
1.501364517E1	7.057801711E-3	9.908869802E-3	-1.505944544E-1	1.510850355E-1
1.502365417E1	3.814714355E-4	-3.052529795E-3	-1.553839087E-1	1.554143576E-1
1.503369517E1	4.679522119E-3	4.895846257E-3	-1.484988123E-1	1.486531685E-1
1.504373517E1	-1.514872420E-2	-3.995868405E-3	-1.624204481E-1	1.631743018E-1
1.505377517E1	-3.681697052E-3	-9.443847137E-4	-1.573322010E-1	1.573781059E-1
1.506381617E1	-8.590082845E-3	-4.419215955E-5	-1.555359364E-1	1.557729725E-1
1.507385617E1	-1.605712113E-2	3.551872876E-3	-1.631706458E-1	1.639972762E-1
1.508386617E1	-8.028357283E-3	-1.990721114E-3	-1.621234095E-1	1.623342767E-1
1.509390617E1	-4.809883051E-4	-9.578703116E-3	-1.594290125E-1	1.597172281E-1
1.510394617E1	-4.346468369E-3	-2.186205410E-3	-1.610755885E-1	1.611490505E-1
1.511398617E1	-2.737670937E-3	5.076484107E-3	-1.612258619E-1	1.613289933E-1
1.512402717E1	8.890577196E-4	-3.746740473E-4	-1.537414259E-1	1.537444530E-1
1.513403717E1	-6.553449668E-3	1.915091034E-3	-1.529918128E-1	1.531440827E-1
1.514407717E1	-4.573114214E-3	-4.984810730E-3	-1.540390491E-1	1.541875169E-1
1.515411717E1	4.887356374E-3	-4.176460574E-3	-1.517931336E-1	1.519292088E-1
1.516415717E1	5.986009366E-3	2.625979981E-3	-1.479000574E-1	1.480444361E-1
1.517419817E1	-6.264268309E-3	4.243950234E-3	-1.484988123E-1	1.486914572E-1
1.518420717E1	6.160247256E-4	9.907184159E-3	-1.564328992E-1	1.567475159E-1
1.519424817E1	5.506779794E-3	8.828898207E-3	-1.660129774E-1	1.663387589E-1
1.520428817E1	-2.778542060E-3	9.946301118E-3	-1.728986585E-1	1.732067993E-1
1.521432817E1	7.938417513E-4	6.879568985E-3	-1.567328614E-1	1.568857817E-1
1.522436917E1	-5.331948046E-3	4.311682004E-3	-1.667631751E-1	1.669040948E-1
1.523440917E1	-2.236964267E-3	2.336657010E-3	-1.573322010E-1	1.573654519E-1
1.524441917E1	-1.726822110E-3	-1.851516268E-3	-1.601768714E-1	1.601968794E-1
1.525445917E1	-1.502887227E-2	-2.718059923E-3	-1.621228248E-1	1.628406128E-1
1.526449917E1	-1.008585314E-2	1.356225125E-3	-1.579315406E-1	1.582590765E-1
1.527453917E1	-1.213511950E-3	-7.952555898E-3	-1.606253529E-1	1.608266761E-1
1.528458017E1	2.838846040E-3	-3.195416559E-3	-1.558347291E-1	1.558933370E-1
1.529458917E1	5.090732127E-4	-2.706068563E-3	-1.525421619E-1	1.525670119E-1
1.530463017E1	-3.774747723E-3	-3.151429966E-3	-1.585302955E-1	1.586065409E-1
1.531467017E1	1.319437916E-4	-5.368118556E-3	-1.598774940E-1	1.599676442E-1
1.532471017E1	5.262231419E-3	4.590493692E-3	-1.594290125E-1	1.595818716E-1
1.533475117E1	2.881839063E-3	7.187794908E-3	-1.477538770E-1	1.479566746E-1
1.534476017E1	3.111244063E-3	9.242090788E-3	-1.559873414E-1	1.562918640E-1
1.535480117E1	-5.126498358E-3	9.211292407E-3	-1.592799085E-1	1.596283752E-1
1.536484117E1	-1.663685886E-3	1.264551748E-3	-1.567352003E-1	1.567491306E-1
1.537488117E1	-6.494669162E-3	3.508050735E-3	-1.655668348E-1	1.657313004E-1
1.538492217E1	-4.891412880E-3	3.677199720E-3	-1.568848890E-1	1.570041914E-1
1.539496217E1	-1.542971032E-2	1.512702098E-3	-1.568843043E-1	1.576484988E-1
1.540497217E1	-1.636383728E-2	7.760305842E-4	-1.691587794E-1	1.699501987E-1
1.541501217E1	-9.816303353E-3	-3.273837771E-3	-1.691581947E-1	1.694744012E-1
1.542505217E1	-1.424475380E-3	3.615306029E-3	-1.580806446E-1	1.581283965E-1
1.543509217E1	2.970020100E-3	2.264686008E-3	-1.538893604E-1	1.539346779E-1
1.544513317E1	-6.124063041E-3	1.744416291E-3	-1.585297108E-1	1.586575442E-1
1.545511967E1	-8.692571288E-4	-5.780434054E-3	-1.565843421E-1	1.566934116E-1
1.546516067E1	5.455166695E-3	-3.352478254E-3	-1.465557826E-1	1.466955874E-1
1.547520067E1	-6.423029350E-4	-2.983856988E-3	-1.426644605E-1	1.426971067E-1
1.548524067E1	2.764737150E-3	-2.566425176E-3	-1.549389356E-1	1.549848512E-1
1.549528167E1	1.657470935E-3	8.689419273E-4	-1.577836061E-1	1.577947040E-1
1.550529067E1	-4.165841939E-3	4.178726370E-3	-1.549389356E-1	1.550512488E-1
1.551533167E1	-2.488545289E-3	9.336518752E-3	-1.553874171E-1	1.556875487E-1
1.552537167E1	-1.543146677E-2	7.311879219E-3	-1.592781544E-1	1.601908993E-1
1.553541167E1	-1.036070882E-2	5.937664770E-4	-1.496980762E-1	1.500573586E-1
1.554545267E1	-3.970277701E-3	6.581612234E-3	-1.495483875E-1	1.497457877E-1
1.555549267E1	-5.697115799E-3	9.446090092E-3	-1.585297108E-1	1.589130421E-1
1.556550267E1	-7.382573427E-3	9.496129467E-3	-1.649663258E-1	1.654042548E-1
1.557554267E1	-1.536241709E-4	1.195605309E-2	-1.568837196E-1	1.573387183E-1
1.558558267E1	6.714835104E-3	7.908596713E-3	-1.492495948E-1	1.496097472E-1
1.559562267E1	2.306166978E-3	4.095938019E-3	-1.558358985E-1	1.559067746E-1
1.560566367E1	-6.322523479E-3	-1.872940832E-3	-1.655656654E-1	1.656969274E-1
1.561567267E1	-1.497533598E-3	8.774432307E-4	-1.561358607E-1	1.561455075E-1
1.562571367E1	1.093470440E-3	-8.344209711E-3	-1.473042262E-1	1.475444223E-1
1.563575367E1	-1.021034859E-2	-1.853156686E-2	-1.520942652E-1	1.535588998E-1
1.564579367E1	-9.223667490E-3	-9.598286720E-3	-1.622742677E-1	1.628193511E-1
1.565583467E1	-8.961977181E-3	-9.080474661E-3	-1.574853981E-1	1.580013375E-1
1.566584367E1	-6.139437107E-3	-4.637234872E-3	-1.505991322E-1	1.507955412E-1
1.567588467E1	-6.514289312E-3	2.076232075E-3	-1.735009217E-1	1.736355855E-1
1.568592467E1	-1.033763973E-2	4.947301755E-3	-1.738008839E-1	1.741783277E-1
1.569596467E1	-7.875240175E-3	1.694798555E-2	-1.541922462E-1	1.553206439E-1
1.570600467E1	-6.861241618E-3	1.744998728E-2	-1.447618568E-1	1.459711406E-1
1.571604567E1	-8.934017897E-3	8.076836639E-3	-1.374276942E-1	1.379544240E-1
1.572605567E1	3.186833030E-3	4.483804847E-3	-1.353320521E-1	1.354438066E-1
1.573609567E1	7.860014574E-3	-8.204077533E-3	-1.606294459E-1	1.610307598E-1
1.574613567E1	6.500952635E-3	-3.843562142E-3	-1.669169569E-1	1.670877190E-1
1.575617567E1	5.329223152E-3	-5.081385719E-3	-1.576356715E-1	1.578075601E-1
1.576621667E1	-8.422982669E-3	-9.109888896E-3	-1.564381617E-1	1.569293955E-1
1.577622567E1	3.125533196E-3	-1.115587533E-2	-1.628753614E-1	1.632868821E-1
1.578626667E1	-1.445539061E-3	-1.066541728E-2	-1.386263734E-1	1.390435619E-1
1.579630667E1	-6.657626037E-3	7.701481939E-3	-1.413207704E-1	1.416869682E-1
1.580634667E1	-6.975285164E-3	5.465122950E-3	-1.609288234E-1	1.611726042E-1
1.581638767E1	-7.528317561E-3	5.165517102E-3	-1.622760218E-1	1.625326595E-1
1.582639667E1	-6.348210115E-3	1.814936909E-2	-1.573362941E-1	1.585068099E-1
1.583643767E1	1.186361227E-3	1.754241440E-2	-1.556891334E-1	1.566788116E-1
1.584647767E1	-2.360109827E-3	8.883925988E-3	-1.589811158E-1	1.592466309E-1
1.585651767E1	7.263155468E-4	1.380363163E-3	-1.474550843E-1	1.474633338E-1
1.586655767E1	-4.775743077E-3	-1.755657563E-2	-1.523948121E-1	1.534770987E-1
1.587656767E1	-7.375221010E-3	-1.463949567E-2	-1.610761732E-1	1.619081292E-1
1.588660867E1	-7.332100079E-3	-1.054691523E-3	-1.601780409E-1	1.603492340E-1
1.589664867E1	-5.102134198E-3	3.369732108E-3	-1.639208436E-1	1.640348434E-1
1.590668867E1	-3.264527908E-4	1.758207497E-3	-1.491016603E-1	1.491123836E-1
1.591672867E1	-3.252230482E-3	4.300001278E-3	-1.404197145E-1	1.405231768E-1
1.592676967E1	-2.539923128E-3	1.104860177E-2	-1.610773426E-1	1.614757973E-1
1.593677867E1	4.640930495E-4	1.419918206E-2	-1.730512708E-1	1.736334487E-1
