"Time (s)"	"Linear Acceleration x (m/s^2)"	"Linear Acceleration y (m/s^2)"	"Linear Acceleration z (m/s^2)"	"Absolute acceleration (m/s^2)"
1.565347500E-1	-5.662546421E-3	6.567080989E-3	-2.171731907E-1	2.173462347E-1
1.665757501E-1	3.044895867E-3	3.397369338E-3	-2.171726060E-1	2.172205200E-1
1.765857501E-1	-2.335152523E-3	7.010181164E-3	-2.174725682E-1	2.175980549E-1
1.866257500E-1	-2.438559589E-3	3.917415217E-3	-2.222626072E-1	2.223105020E-1
1.966657500E-1	-1.811994886E-3	3.674600450E-3	-2.108856797E-1	2.109254748E-1
2.067057501E-1	1.700774306E-3	-4.666836401E-3	-2.005577427E-1	2.006192417E-1
2.167467501E-1	-1.065947128E-3	-2.772904979E-3	-1.929230332E-1	1.929459043E-1
2.267557500E-1	-1.647079850E-3	3.436509138E-3	-1.978621763E-1	1.978988713E-1
2.367967500E-1	-3.559333500E-3	-3.341583246E-3	-2.051963389E-1	2.052544093E-1
2.468367501E-1	-4.701865163E-3	-1.237124652E-2	-2.065043610E-1	2.069280223E-1
2.568767500E-1	2.399453194E-3	-1.322792756E-2	-2.121744061E-1	2.125998919E-1
2.669177500E-1	4.378006789E-3	-1.231261904E-2	-2.118779522E-1	2.122805553E-1
2.769577501E-1	2.525164904E-3	-8.948551426E-3	-2.034971380E-1	2.037094456E-1
2.869677501E-1	2.104531685E-3	-5.535979327E-3	-2.051589167E-1	2.052443842E-1
2.970077500E-1	2.256003121E-4	-5.250379387E-3	-2.099565572E-1	2.100223161E-1
3.070477501E-1	9.330223288E-4	-3.389905002E-3	-2.105535579E-1	2.105829117E-1
3.170877501E-1	3.635502620E-3	-2.243841598E-3	-2.065178096E-1	2.065619941E-1
3.271287500E-1	1.838933791E-2	-1.065186362E-2	-1.923055673E-1	1.934762547E-1
3.371687500E-1	4.869208307E-3	2.031834349E-3	-1.969517648E-1	1.970224231E-1
3.471787501E-1	-2.393624822E-3	1.769970451E-4	-1.954595554E-1	1.954742913E-1
3.572187501E-1	-6.236016664E-3	-1.572252335E-3	-1.992023581E-1	1.993061448E-1
3.672587500E-1	-3.856864558E-3	1.845034081E-3	-2.011483115E-1	2.011937444E-1
3.772997500E-1	8.996449487E-3	5.753751565E-4	-1.915688181E-1	1.917808104E-1
3.873397501E-1	2.301654230E-3	-8.941653538E-3	-1.908197898E-1	1.910430395E-1
3.973797500E-1	3.197819400E-3	1.183595220E-3	-1.908192050E-1	1.908496685E-1
4.073897500E-1	-9.687503011E-4	9.877747083E-3	-1.896257883E-1	1.898853548E-1
4.174297501E-1	-4.966872797E-3	3.613579273E-3	-1.890235251E-1	1.891232953E-1
4.274707501E-1	-1.222928166E-3	-5.191496098E-3	-1.981533676E-1	1.982251354E-1
4.375107500E-1	-6.766683176E-4	-5.941949682E-3	-1.956086594E-1	1.957000569E-1
4.475212917E-1	1.688180380E-3	4.265415911E-3	-2.008454257E-1	2.008978068E-1
4.575312918E-1	3.697110518E-4	-6.319853403E-3	-1.948572922E-1	1.949601024E-1
4.675712917E-1	4.850497217E-3	4.912154507E-3	-1.914167905E-1	1.915412339E-1
4.776112917E-1	3.348952794E-3	5.783654591E-3	-1.867746860E-1	1.868942200E-1
4.876522917E-1	-4.332902715E-3	9.983599959E-3	-1.861724228E-1	1.864902606E-1
4.976922917E-1	-5.276115130E-3	9.615344144E-3	-1.966488791E-1	1.969544969E-1
5.077322917E-1	-5.732026075E-3	2.107053297E-3	-1.917103207E-1	1.918075673E-1
5.177422917E-1	-2.327115884E-3	-3.035079511E-3	-1.932089621E-1	1.932468116E-1
5.277822918E-1	-3.300567084E-3	-7.344833761E-4	-1.929078305E-1	1.929374621E-1
5.378232917E-1	-1.051637724E-3	4.356870018E-3	-1.852748752E-1	1.853290793E-1
5.478632917E-1	-4.080424625E-3	3.675038991E-3	-1.851234323E-1	1.852048621E-1
5.579032917E-1	4.003025820E-4	-1.841406981E-3	-1.955993038E-1	1.956083809E-1
5.679432917E-1	4.059482000E-3	-9.657316189E-3	-1.939486349E-1	1.942313469E-1
5.779532917E-1	3.978649954E-3	-5.901183626E-3	-1.842165291E-1	1.843539618E-1
5.879942917E-1	8.598079369E-4	-3.037820393E-3	-1.896041536E-1	1.896304372E-1
5.980342918E-1	3.693988767E-3	-3.100330783E-3	-1.819706136E-1	1.820345072E-1
6.080742917E-1	-9.278473431E-4	-8.411576031E-3	-1.849638033E-1	1.851572954E-1
6.181142917E-1	-1.512721655E-3	-6.837405078E-4	-1.729869515E-1	1.729949167E-1
6.281552917E-1	5.347624180E-3	-6.030763406E-4	-1.806193221E-1	1.806994751E-1
6.381642917E-1	-8.869973470E-4	-4.175779922E-3	-1.860081160E-1	1.860570964E-1
6.482052917E-1	-1.198725176E-3	1.264076661E-3	-1.780763680E-1	1.780848889E-1
6.582452917E-1	1.416534815E-2	-5.311427973E-3	-1.809216231E-1	1.815530282E-1
6.682852918E-1	1.693423089E-2	-2.934589628E-3	-1.855619735E-1	1.863561804E-1
6.783262917E-1	5.543704047E-3	-3.161909273E-3	-1.861613131E-1	1.862706762E-1
6.883662917E-1	3.891007957E-4	-2.736259382E-3	-1.806239998E-1	1.806451434E-1
6.983762917E-1	-2.469632915E-3	-7.926586038E-3	-1.816706514E-1	1.818602635E-1
7.084162917E-1	-7.749408551E-3	-7.593221655E-3	-1.813718587E-1	1.816960690E-1
7.184562917E-1	-2.491831778E-3	4.112904081E-3	-1.792762166E-1	1.793407011E-1
7.284962917E-1	-6.035977935E-3	-2.430934226E-3	-1.690979683E-1	1.692231230E-1
7.385372918E-1	-1.053237942E-2	-2.840285003E-4	-1.791276973E-1	1.794372973E-1
7.485462917E-1	2.922421824E-3	-5.789785031E-3	-1.780787069E-1	1.781967676E-1
7.585872917E-1	6.549833987E-3	-2.742289323E-3	-1.707445443E-1	1.708921293E-1
7.686272917E-1	-5.276661594E-3	-1.239052406E-3	-1.728401864E-1	1.729251527E-1
7.786672917E-1	-1.188778913E-3	-8.105446883E-3	-1.683506942E-1	1.685498968E-1
7.887082917E-1	-1.164798762E-3	-5.826951396E-3	-1.737400728E-1	1.738416608E-1
7.987482917E-1	-9.887598271E-3	-2.414479796E-3	-1.779296029E-1	1.782204755E-1
8.087582918E-1	-2.122998951E-3	-5.431021806E-3	-1.729898751E-1	1.730881278E-1
8.187982917E-1	3.809956926E-3	-2.904348560E-3	-1.786774617E-1	1.787416749E-1
8.288382917E-1	-6.414940321E-3	-2.971134726E-3	-1.804748958E-1	1.806133083E-1
8.388792917E-1	1.039151291E-3	3.808912821E-4	-1.804754806E-1	1.804788741E-1
8.489192917E-1	5.317600669E-3	-3.580085691E-3	-1.804743111E-1	1.805881249E-1
8.589592917E-1	-2.609771088E-3	-7.252740115E-3	-1.831692928E-1	1.833314020E-1
8.689692917E-1	8.110718513E-3	-1.632533474E-3	-1.825717074E-1	1.827590689E-1
8.790092918E-1	5.655887790E-4	-5.319595803E-4	-1.833201510E-1	1.833217953E-1
8.890492917E-1	4.168421509E-3	8.307614364E-4	-1.756860262E-1	1.757374340E-1
8.990902917E-1	7.314003974E-3	3.247342575E-3	-1.798778951E-1	1.800558165E-1
9.091302917E-1	-2.490126435E-3	1.112980954E-4	-1.710462606E-1	1.710644217E-1
9.191702917E-1	-2.061089271E-3	-3.242427260E-3	-1.758357149E-1	1.758776850E-1
9.291802917E-1	-2.801731067E-3	-4.484695634E-3	-1.731407332E-1	1.732214643E-1
9.392202917E-1	-2.850662098E-3	-7.006901242E-3	-1.661059481E-1	1.662781072E-1
9.492612918E-1	-3.982741292E-3	2.233060794E-3	-1.662550521E-1	1.663177415E-1
9.593012917E-1	2.338058001E-3	3.176371995E-3	-1.683512789E-1	1.683974731E-1
9.693412917E-1	6.064218159E-3	5.918332413E-3	-1.670040804E-1	1.672189112E-1
9.793512917E-1	-2.330847196E-3	-5.376103660E-3	-1.693985152E-1	1.694998298E-1
9.893912917E-1	3.738135245E-5	-5.124353617E-4	-1.698481661E-1	1.698489432E-1
9.994312917E-1	9.260425578E-3	-5.690391501E-3	-1.810754049E-1	1.814013183E-1
1.009472292E0	3.812053415E-3	-4.497851869E-3	-1.713456380E-1	1.714470475E-1
1.019512292E0	-1.197791277E-4	-1.055988874E-2	-1.676040047E-1	1.679363808E-1
1.029552292E0	1.052804026E-3	-2.530802842E-3	-1.786809701E-1	1.787019933E-1
1.039562292E0	-7.966451600E-4	-6.357750669E-4	-1.737394881E-1	1.737424778E-1
1.049602292E0	1.851030618E-3	-5.164187774E-3	-1.732886678E-1	1.733754814E-1
1.059643292E0	-1.113463578E-2	3.341711154E-3	-1.686483175E-1	1.690485200E-1
1.069683292E0	1.232489420E-3	1.629728638E-4	-1.785271883E-1	1.785315170E-1
1.079723292E0	7.586916484E-3	-3.613835089E-3	-1.656551278E-1	1.658681478E-1
1.089764292E0	8.915599168E-3	1.784789488E-3	-1.634097970E-1	1.636625648E-1
1.099773292E0	3.754823221E-4	4.329223651E-4	-1.734401107E-1	1.734410574E-1
1.109814292E0	-1.705810678E-3	-6.442334298E-3	-1.686500716E-1	1.687816937E-1
1.119854292E0	-3.357161736E-3	-5.676367320E-3	-1.680501473E-1	1.681794984E-1
1.129894292E0	-1.807290419E-3	-6.989807272E-3	-1.806245846E-1	1.807688144E-1
1.139934292E0	3.397445854E-3	-2.403360950E-3	-1.619129097E-1	1.619663827E-1
1.149975292E0	-6.619424990E-4	3.077526642E-3	-1.664029866E-1	1.664327591E-1
1.159984292E0	6.780885800E-5	-9.652830279E-3	-1.692470723E-1	1.695221320E-1
1.170025292E0	2.363345210E-3	3.189135371E-3	-1.649060994E-1	1.649538651E-1
1.180065292E0	4.585381947E-5	-5.288404562E-3	-1.635589010E-1	1.636443809E-1
1.190105292E0	4.347171006E-3	-5.690720407E-3	-1.640085518E-1	1.641648174E-1
1.200146292E0	1.205736981E-3	2.206492508E-3	-1.670017415E-1	1.670206696E-1
1.210186292E0	3.189726945E-3	4.949969547E-3	-1.683483553E-1	1.684513143E-1
1.220196292E0	2.251121781E-3	-1.290855082E-3	-1.698446578E-1	1.698644802E-1
1.230236292E0	1.350205748E-3	-5.231586071E-3	-1.692453182E-1	1.693315395E-1
1.240276292E0	4.754541210E-3	-8.534842646E-3	-1.683483553E-1	1.686316042E-1
1.250316292E0	3.874403920E-3	1.420599315E-3	-1.608633345E-1	1.609162562E-1
1.260357292E0	-5.016465636E-4	8.806637675E-4	-1.623608065E-1	1.623639698E-1
1.270367292E0	-6.274552328E-3	1.720168618E-3	-1.686483175E-1	1.687737656E-1
1.280407292E0	-3.146826140E-3	1.006150497E-3	-1.717906111E-1	1.718223761E-1
1.290447292E0	-8.743828643E-4	-2.259647353E-3	-1.683471859E-1	1.683646208E-1
1.300487292E0	2.228369603E-3	-8.066654261E-3	-1.628087032E-1	1.630236497E-1
1.310528292E0	-7.608184018E-4	-5.978768868E-3	-1.711912715E-1	1.712973321E-1
1.320568292E0	-3.922783920E-3	4.620058676E-3	-1.693961763E-1	1.695045655E-1
1.330578292E0	3.019262621E-3	6.348769711E-3	-1.553248519E-1	1.554838655E-1
1.340618292E0	-3.880454704E-3	1.184262168E-3	-1.650540340E-1	1.651038902E-1
1.350658292E0	-5.709656478E-3	4.015282989E-3	-1.580180794E-1	1.581721723E-1
1.360699292E0	3.822355136E-3	-4.986213148E-4	-1.596646553E-1	1.597111805E-1
1.370739292E0	2.871531062E-3	-4.279896906E-3	-1.672981954E-1	1.673775653E-1
1.380779292E0	5.348482418E-3	4.589927243E-3	-1.716397530E-1	1.717843954E-1
1.390789292E0	-1.825757113E-3	8.588499986E-3	-1.696943843E-1	1.699213930E-1
1.400829292E0	-5.416262154E-3	-1.167515377E-3	-1.675975728E-1	1.676891332E-1
1.410869292E0	-2.504543762E-3	7.689819485E-4	-1.655007613E-1	1.655214973E-1
1.420910292E0	4.187660790E-3	4.708415587E-3	-1.611586189E-1	1.612817601E-1
1.430950292E0	9.525779533E-4	-1.062167737E-2	-1.593617696E-1	1.597181925E-1
1.440990292E0	1.288818264E-3	-2.870398164E-3	-1.563679951E-1	1.563996488E-1
1.450969875E0	5.055681381E-3	-1.746627269E-3	-1.607083833E-1	1.607973728E-1
1.461009875E0	9.051788472E-3	-1.314910892E-3	-1.586121565E-1	1.588756748E-1
1.471050875E0	1.260217956E-2	-4.129760507E-3	-1.641500545E-1	1.646848816E-1
1.481090875E0	2.020303229E-3	-6.985494951E-3	-1.617544502E-1	1.619178215E-1
1.491130875E0	-2.703015906E-3	-3.098192895E-3	-1.629519600E-1	1.630038231E-1
1.501171875E0	-3.008477820E-3	-4.827333335E-3	-1.509762776E-1	1.510833892E-1
1.511180875E0	-6.827291222E-3	-3.603474554E-3	-1.593594307E-1	1.595463101E-1
1.521221875E0	-8.183723627E-4	-6.266570650E-3	-1.668438667E-1	1.669635155E-1
1.531261875E0	1.839925762E-4	-1.846559839E-3	-1.593600154E-1	1.593708196E-1
1.541301875E0	2.587967369E-3	-3.970789332E-3	-1.499296260E-1	1.500045249E-1
1.551341875E0	-3.834752204E-3	-5.286522489E-3	-1.524743342E-1	1.526141384E-1
1.561351875E0	-4.087307095E-3	-5.267144451E-3	-1.571135151E-1	1.572549062E-1
1.571391875E0	-3.658244520E-3	-1.176768595E-2	-1.651961213E-1	1.656551227E-1
1.581432875E0	4.520278282E-3	-5.666463599E-3	-1.524737495E-1	1.526459499E-1
1.591472875E0	3.929824276E-3	-2.823985890E-3	-1.560674483E-1	1.561424568E-1
1.601512875E0	-1.358015835E-3	-1.229584484E-2	-1.551693159E-1	1.556616479E-1
1.611553875E0	-8.469546263E-4	-5.407066494E-3	-1.581642598E-1	1.582589232E-1
1.621562875E0	-3.336157156E-3	-3.330720216E-3	-1.562194759E-1	1.562905892E-1
1.631603875E0	-1.720817294E-5	-7.010464389E-3	-1.589144576E-1	1.590690156E-1
1.641643875E0	1.184212603E-2	-6.712777158E-3	-1.572672969E-1	1.578553135E-1
1.651683875E0	1.942389937E-3	-3.401745614E-3	-1.536753523E-1	1.537252701E-1
1.661723875E0	2.107534379E-3	9.551974945E-5	-1.551722395E-1	1.551865804E-1
1.671764875E0	7.450865937E-4	-1.506589931E-3	-1.577175325E-1	1.577264880E-1
1.681774875E0	4.191064053E-3	-5.645696847E-3	-1.664000630E-1	1.665485511E-1
1.691814875E0	6.793404780E-3	-1.165349166E-2	-1.572702205E-1	1.578476369E-1
1.701854875E0	4.949467052E-3	-4.049946014E-3	-1.613129854E-1	1.614397056E-1
1.711894875E0	6.254896775E-3	-6.042613154E-3	-1.491887838E-1	1.494420627E-1
1.721935875E0	1.763028310E-3	-4.293994177E-3	-1.541290963E-1	1.541989785E-1
1.731975875E0	3.131257358E-3	-1.948438436E-3	-1.566738045E-1	1.567172046E-1
1.741985875E0	3.956115904E-3	4.751538802E-3	-1.641576558E-1	1.642740513E-1
1.752025875E0	-7.911676780E-4	4.077336565E-4	-1.622117025E-1	1.622141443E-1
1.762065875E0	2.756745765E-3	-2.392059378E-3	-1.584700692E-1	1.585120955E-1
1.772106875E0	6.956556943E-3	-2.506162310E-3	-1.610159469E-1	1.611856373E-1
1.782146875E0	1.006776046E-3	-3.642934123E-3	-1.595196444E-1	1.595644118E-1
1.792186875E0	7.116201919E-3	-3.224785114E-3	-1.530830294E-1	1.532822673E-1
1.802196875E0	-2.183565598E-3	-1.881560907E-3	-1.553283602E-1	1.553551020E-1
1.812236875E0	-4.652930992E-3	-1.330771465E-3	-1.608662581E-1	1.609390373E-1
1.822276875E0	1.124284810E-2	-5.471796999E-3	-1.529321712E-1	1.534424687E-1
1.832317875E0	5.737259447E-3	-8.683937509E-3	-1.565241158E-1	1.568697732E-1
1.842357875E0	7.927608158E-3	-1.068680073E-2	-1.607148153E-1	1.612647095E-1
1.852367875E0	4.585758818E-3	-8.587558949E-3	-1.502366048E-1	1.505516947E-1
1.862407875E0	2.352747417E-3	-4.825305082E-3	-1.466440755E-1	1.467423043E-1
1.872447875E0	6.381061873E-3	2.774485555E-3	-1.506856710E-1	1.508462368E-1
1.882488875E0	-6.398504163E-5	-4.572705366E-5	-1.482894820E-1	1.482895029E-1
1.892528875E0	1.318368401E-3	-5.434301728E-3	-1.592167586E-1	1.593149270E-1
1.902568875E0	1.952830985E-3	-1.027191337E-3	-1.493378878E-1	1.493541877E-1
1.912578875E0	-3.021480452E-3	5.700075952E-3	-1.608639193E-1	1.609932319E-1
1.922618875E0	-6.520399195E-4	-6.016656999E-3	-1.511347371E-1	1.512558564E-1
1.932659875E0	3.226665473E-3	-9.002912259E-3	-1.535303414E-1	1.538279218E-1
1.942699875E0	-2.188531734E-4	-4.275950035E-3	-1.623625606E-1	1.624190036E-1
1.952739875E0	-4.390722770E-3	-2.947343867E-3	-1.560756344E-1	1.561651975E-1
1.962779875E0	-4.851909913E-3	4.740356002E-3	-1.605662960E-1	1.607095125E-1
1.972789875E0	-1.596977092E-3	8.080486581E-4	-1.554780489E-1	1.554883500E-1
1.982829875E0	4.271641711E-3	-1.086502204E-2	-1.578730685E-1	1.583041420E-1
1.992870875E0	5.617184818E-3	-7.259793319E-3	-1.684997982E-1	1.687496351E-1
2.002910875E0	-5.072194056E-4	1.854124675E-3	-1.514352840E-1	1.514474836E-1
2.012950875E0	-1.281152073E-3	5.344355106E-4	-1.502377743E-1	1.502441872E-1
2.022991875E0	-5.886128187E-3	-8.415696491E-4	-1.524831051E-1	1.525989911E-1
2.033000875E0	2.047076795E-3	2.747643180E-4	-1.515843880E-1	1.515984588E-1
2.043041875E0	5.868838930E-3	-8.048582710E-3	-1.584688997E-1	1.587816587E-1
2.053081875E0	5.161129406E-3	-5.912594832E-3	-1.496378499E-1	1.498435256E-1
2.063121875E0	1.004454805E-2	-1.164198909E-3	-1.527818978E-1	1.531161539E-1
2.073161875E0	1.910686493E-3	-6.629701015E-3	-1.601172298E-1	1.602658134E-1
2.083202875E0	4.720642777E-3	1.396561777E-3	-1.565247005E-1	1.566020968E-1
2.093212875E0	-5.964750397E-3	-1.122939494E-4	-1.593682015E-1	1.594798248E-1
2.103252875E0	-2.460614556E-3	-6.537561687E-3	-1.538303035E-1	1.539888198E-1
2.113292875E0	-9.295565402E-4	2.267257869E-3	-1.562247384E-1	1.562439548E-1
2.123332875E0	-2.917209579E-4	1.580913523E-3	-1.411067623E-1	1.411159196E-1
2.133373875E0	4.484164017E-3	-5.731541282E-3	-1.569737667E-1	1.571423613E-1
2.143382875E0	-1.577444023E-3	-1.175262937E-3	-1.530812752E-1	1.530939137E-1
2.153423875E0	-5.960948565E-3	-5.223518740E-3	-1.460459054E-1	1.462608099E-1
2.163463875E0	-6.077663900E-4	1.851420337E-3	-1.469446224E-1	1.469575421E-1
2.173503875E0	2.103330550E-3	-7.779135704E-3	-1.604160225E-1	1.606183029E-1
2.183544875E0	-1.176747011E-3	-7.601234168E-3	-1.461955941E-1	1.463977979E-1
2.193584875E0	1.902470413E-3	-2.659615176E-3	-1.541296810E-1	1.541643652E-1
2.203594875E0	-6.407504536E-3	-5.473788707E-3	-1.593687862E-1	1.595914424E-1
2.213634875E0	8.878640083E-4	-3.066188525E-3	-1.542793697E-1	1.543123901E-1
2.223674875E0	2.450391065E-3	-2.997410651E-3	-1.533818221E-1	1.534306757E-1
2.233714875E0	-4.119781126E-3	-8.124048337E-3	-1.581718612E-1	1.584339308E-1
2.243755875E0	3.503979954E-3	-8.511170559E-3	-1.518849349E-1	1.521635677E-1
2.253795875E0	7.054424715E-3	-8.885584222E-3	-1.542805392E-1	1.546971340E-1
2.263805875E0	2.187825672E-3	-9.497120753E-3	-1.547307748E-1	1.550373972E-1
2.273845875E0	2.789738850E-3	-1.395967919E-3	-1.466481686E-1	1.466813441E-1
2.283885875E0	-4.382660008E-3	-7.625618884E-3	-1.488934994E-1	1.491530487E-1
2.293926875E0	-1.554082284E-3	5.144636147E-4	-1.490437728E-1	1.490527627E-1
2.303966875E0	-2.964120922E-3	-8.032338414E-4	-1.438052523E-1	1.438380401E-1
2.314006875E0	7.280301400E-3	-1.149434689E-3	-1.412599593E-1	1.414521124E-1
2.324016875E0	8.418968419E-4	-8.009095732E-3	-1.508400375E-1	1.510548619E-1
2.334056875E0	1.894779383E-3	-4.513145993E-3	-1.601213229E-1	1.601961195E-1
2.344097875E0	-7.170773458E-4	-7.347994912E-3	-1.550319064E-1	1.552076004E-1
2.354137875E0	1.079936477E-3	-1.513917223E-3	-1.506909335E-1	1.507024075E-1
2.364177875E0	6.895544903E-3	-4.253392573E-3	-1.554821420E-1	1.556930839E-1
2.374187875E0	2.804647823E-3	2.132315096E-4	-1.512920272E-1	1.513181715E-1
2.384227875E0	5.988650891E-4	1.415309412E-3	-1.575789535E-1	1.575864472E-1
2.394267875E0	-6.018712660E-3	1.803025492E-3	-1.611708981E-1	1.612933173E-1
2.404308875E0	2.600423538E-4	3.834622297E-3	-1.569801986E-1	1.570272419E-1
2.414348875E0	-2.493618776E-3	-7.571906727E-3	-1.505435836E-1	1.507545106E-1
2.424388875E0	-3.253926118E-3	7.194459820E-3	-1.494951779E-1	1.497035621E-1
2.434398875E0	2.702499135E-3	6.247384474E-4	-1.506926876E-1	1.507182136E-1
2.444419000E0	-1.514144202E-3	-1.637083339E-3	-1.611708981E-1	1.611863241E-1
2.454460000E0	1.305061132E-3	3.217284232E-3	-1.607224166E-1	1.607599120E-1
2.464500000E0	8.912456860E-3	4.126526266E-3	-1.523398483E-1	1.526561151E-1
2.474540000E0	3.081382150E-3	3.996443991E-3	-1.400653732E-1	1.401562530E-1
2.484580000E0	-4.016657712E-3	1.112149553E-3	-1.487473190E-1	1.488056965E-1
2.494590000E0	-3.879122806E-3	1.092424337E-4	-1.493460739E-1	1.493964836E-1
2.504631000E0	2.543344663E-3	3.823622223E-4	-1.468013656E-1	1.468238937E-1
2.514671000E0	1.710537558E-3	-4.063549927E-3	-1.577292269E-1	1.577908344E-1
2.524711000E0	-7.215989451E-3	-4.073663782E-3	-1.499448287E-1	1.501736225E-1
2.534751000E0	-4.688031131E-3	-4.136649258E-3	-1.523410177E-1	1.524692598E-1
2.544792000E0	1.475645083E-3	4.799997602E-3	-1.535379428E-1	1.536200422E-1
2.554801000E0	9.252387940E-4	-3.067330560E-3	-1.523398483E-1	1.523735343E-1
2.564842000E0	-6.739529883E-3	-6.750062294E-4	-1.450051010E-1	1.451632054E-1
2.574882000E0	1.484678289E-3	-1.614160426E-3	-1.481479794E-1	1.481642115E-1
2.584922000E0	3.179591961E-3	-7.435282879E-4	-1.499442440E-1	1.499797952E-1
2.594963000E0	3.685320726E-3	-1.098488996E-2	-1.354238534E-1	1.359186134E-1
2.605003000E0	6.560991663E-3	-7.246618811E-3	-1.485964608E-1	1.489176560E-1
2.615013000E0	6.010517422E-3	3.887594417E-3	-1.560814816E-1	1.562455395E-1
2.625053000E0	5.993239585E-3	-3.686477607E-3	-1.488964230E-1	1.490625836E-1
2.635093000E0	-2.317710375E-3	-5.203647343E-3	-1.487479037E-1	1.488569400E-1
2.645133000E0	2.351802098E-3	-1.318629356E-3	-1.466522616E-1	1.466770452E-1
2.655174000E0	7.876402195E-4	1.496229395E-3	-1.535379428E-1	1.535472531E-1
2.665183000E0	2.302508186E-3	-6.193937268E-4	-1.488970077E-1	1.489160975E-1
2.675224000E0	2.638211454E-3	-3.720227005E-3	-1.533882540E-1	1.534560417E-1
2.685264000E0	-1.574174664E-3	-7.290655654E-4	-1.457541293E-1	1.457644530E-1
2.695304000E0	6.353098021E-3	-2.980070002E-3	-1.438081759E-1	1.439792837E-1
2.705345000E0	6.616890816E-3	1.314170854E-3	-1.544354904E-1	1.545827642E-1
2.715385000E0	6.549239559E-3	-8.144257776E-3	-1.535373580E-1	1.538926307E-1
2.725395000E0	1.215635563E-4	-2.298193295E-3	-1.423107040E-1	1.423293116E-1
2.735435000E0	4.857519015E-3	-3.645291282E-3	-1.369230795E-1	1.370577008E-1
2.745475000E0	5.941379807E-3	6.656689569E-4	-1.441081381E-1	1.442320997E-1
2.755516000E0	9.643514705E-3	2.846872257E-3	-1.468019503E-1	1.471458959E-1
2.765556000E0	3.175140882E-6	-8.869714513E-3	-1.509926498E-1	1.512529409E-1
2.775596000E0	-1.484683999E-3	2.136718780E-3	-1.518913668E-1	1.519136504E-1
2.785606000E0	1.298758530E-4	4.011372663E-3	-1.524895370E-1	1.525423445E-1
2.795646000E0	-6.502870682E-3	-1.588788992E-3	-1.500951022E-1	1.502443053E-1
2.805686000E0	-1.005338511E-3	-5.015768996E-3	-1.450062704E-1	1.450964752E-1
2.815727000E0	3.009294660E-3	-5.624290556E-3	-1.477000827E-1	1.478377588E-1
2.825767000E0	-7.989262593E-3	-8.015207900E-3	-1.484491110E-1	1.488798523E-1
2.835807000E0	-5.646528819E-4	-8.639489533E-3	-1.524901217E-1	1.527357091E-1
2.845817000E0	4.893256694E-3	-1.268932591E-2	-1.506938571E-1	1.513063168E-1
2.855857000E0	-1.530655734E-3	-2.733564181E-3	-1.453056479E-1	1.453394185E-1
2.865898000E0	3.854229599E-3	1.556245582E-3	-1.482988375E-1	1.483570767E-1
2.875938000E0	-2.515780237E-3	-1.596362963E-3	-1.508435458E-1	1.508729692E-1
2.885978000E0	3.093339535E-3	-6.043197876E-3	-1.541372824E-1	1.542867162E-1
2.896018000E0	2.480651833E-3	-2.956936955E-3	-1.521907443E-1	1.522396786E-1
2.906028000E0	8.591731943E-3	3.569176979E-3	-1.505447531E-1	1.508319580E-1
2.916069000E0	4.822376906E-4	-3.403664231E-3	-1.560838205E-1	1.561216721E-1
2.926109000E0	5.427611691E-3	-1.225224654E-2	-1.463540536E-1	1.469662734E-1
2.936149000E0	5.754825077E-5	1.937082047E-3	-1.535385275E-1	1.535507572E-1
2.946189000E0	-2.292674128E-3	-2.771817762E-3	-1.436602414E-1	1.437052688E-1
2.956199000E0	-2.751775917E-3	-9.833335653E-3	-1.441087228E-1	1.444700341E-1
2.966239000E0	2.079064320E-3	-6.356298001E-3	-1.448577511E-1	1.450120447E-1
2.976280000E0	1.458918278E-3	3.338851500E-4	-1.430620712E-1	1.430698995E-1
2.986320000E0	-9.995068267E-3	4.621575298E-3	-1.518931210E-1	1.522917613E-1
2.996360000E0	-1.169840787E-2	-5.610869369E-3	-1.474024594E-1	1.479723610E-1
3.006401000E0	-1.373725088E-3	-1.244625533E-3	-1.523421872E-1	1.523534647E-1
3.016410000E0	7.062452075E-3	-3.344634762E-3	-1.424627316E-1	1.426768892E-1
3.026451000E0	5.636126599E-3	-8.835005807E-3	-1.496472055E-1	1.500136972E-1
3.036491000E0	1.075021790E-2	-1.000889830E-2	-1.485993844E-1	1.493235490E-1
3.046531000E0	1.307487669E-3	1.032408150E-3	-1.471019125E-1	1.471113458E-1
3.056571000E0	-2.252251538E-3	-6.223091120E-3	-1.490472811E-1	1.491941404E-1
3.066612000E0	-1.405787130E-4	-4.948991966E-3	-1.415622604E-1	1.416488117E-1
3.076621000E0	3.960196393E-3	9.277018765E-3	-1.485976303E-1	1.489395916E-1
3.086662000E0	8.928983239E-3	-5.445703799E-3	-1.494951779E-1	1.498605707E-1
3.096702000E0	-2.619812425E-4	-5.158258332E-3	-1.503933102E-1	1.504819724E-1
3.106742000E0	-1.133505024E-2	-1.983092325E-3	-1.491963851E-1	1.496394913E-1
3.116783000E0	1.679517336E-3	-4.750049589E-3	-1.559329623E-1	1.560143342E-1
3.126823000E0	4.656853880E-3	-5.976101076E-3	-1.547348678E-1	1.549202356E-1
3.136833000E0	-1.411160687E-3	-9.310896071E-3	-1.484479415E-1	1.487463462E-1
3.146873000E0	2.311443177E-3	6.178862415E-4	-1.403635812E-1	1.403839716E-1
3.156913000E0	-5.232127395E-4	-7.183980513E-3	-1.488958383E-1	1.490699634E-1
3.166954000E0	6.066285241E-3	-4.676794941E-3	-1.459020638E-1	1.461029927E-1
3.176994000E0	3.974135207E-3	8.921572007E-4	-1.450039315E-1	1.450611245E-1
3.187034000E0	4.610866442E-4	-4.003698193E-4	-1.421604306E-1	1.421617421E-1
3.197044000E0	-1.483300710E-3	-8.604525011E-3	-1.408132321E-1	1.410836786E-1
3.207084000E0	-2.673100317E-3	-4.097948000E-3	-1.441063839E-1	1.441894189E-1
3.217124000E0	4.798010462E-3	-1.423614286E-3	-1.463528842E-1	1.464384317E-1
3.227165000E0	6.185783143E-3	-4.459908921E-3	-1.435087985E-1	1.437112728E-1
3.237205000E0	1.602616743E-4	-2.381050168E-3	-1.441069686E-1	1.441267272E-1
3.247215000E0	7.793647534E-4	2.020943910E-4	-1.456044406E-1	1.456066666E-1
3.257255000E0	4.961479540E-3	-7.998899650E-4	-1.375218344E-1	1.376136295E-1
3.267295000E0	6.468366970E-3	-4.607213074E-3	-1.475503939E-1	1.477639501E-1
3.277336000E0	9.098551922E-3	-5.535221016E-3	-1.542869711E-1	1.546541036E-1
3.287376000E0	8.860878023E-3	-9.262629133E-3	-1.494969320E-1	1.500454736E-1
3.297416000E0	1.645945810E-3	-6.754904520E-3	-1.551851034E-1	1.553407680E-1
3.307426000E0	-6.279546444E-3	-6.823298670E-3	-1.515919894E-1	1.518753481E-1
3.317466000E0	-2.150202208E-4	-1.182644133E-2	-1.476994979E-1	1.481723748E-1
3.327506000E0	1.014703192E-2	-3.465078268E-3	-1.435082138E-1	1.439082223E-1
3.337547000E0	7.250027783E-4	-8.104377938E-3	-1.454541671E-1	1.456815750E-1
3.347587000E0	-5.663290456E-3	-6.996632069E-3	-1.505424142E-1	1.508112867E-1
3.357627000E0	3.046623765E-3	1.376105659E-4	-1.503927255E-1	1.504236442E-1
3.367637000E0	6.042004450E-3	-1.002356202E-2	-1.435058749E-1	1.439823383E-1
3.377677000E0	2.758011424E-3	-3.676436841E-3	-1.456021017E-1	1.456746197E-1
3.387718000E0	3.253132975E-3	9.644251317E-5	-1.508423764E-1	1.508774823E-1
3.397758000E0	4.177507534E-3	-7.583473250E-4	-1.420113266E-1	1.420747815E-1
3.407798000E0	9.249185105E-3	-2.014831742E-3	-1.496460360E-1	1.499451335E-1
3.417839000E0	2.470701859E-3	5.537230996E-3	-1.512931967E-1	1.514146514E-1
3.427848000E0	6.412732769E-3	7.434542840E-3	-1.530894613E-1	1.534039724E-1
3.437889000E0	1.026316996E-2	3.466275120E-3	-1.500962716E-1	1.504866721E-1
3.447905667E0	3.645346385E-3	-2.871247837E-3	-1.424627316E-1	1.425382844E-1
3.457945667E0	-6.059126970E-3	4.633224048E-3	-1.448577511E-1	1.450584291E-1
3.467985667E0	4.433394311E-4	-5.184388077E-3	-1.387199289E-1	1.388174812E-1
3.477995667E0	-8.676832913E-3	-1.077881215E-2	-1.342286825E-1	1.349400216E-1
3.488035667E0	-1.308792729E-3	2.965515917E-3	-1.378212118E-1	1.378593256E-1
3.498076667E0	5.488296539E-3	5.640151128E-3	-1.478503561E-1	1.480596518E-1
3.508116667E0	7.628645275E-3	-2.067593727E-3	-1.427603549E-1	1.429789848E-1
3.518156667E0	1.679155026E-3	-1.294144141E-2	-1.454541671E-1	1.460384032E-1
3.528197667E0	-1.665402363E-3	-7.958700042E-3	-1.548845565E-1	1.550978411E-1
3.538206667E0	3.784725391E-3	-7.748711910E-3	-1.535367733E-1	1.537787614E-1
3.548247667E0	-2.173126548E-3	-8.096109610E-4	-1.520387167E-1	1.520564018E-1
3.558287667E0	9.723685513E-4	4.890062995E-3	-1.321307015E-1	1.322247349E-1
3.568327667E0	-4.832453075E-3	5.232161656E-3	-1.259934640E-1	1.261946159E-1
3.578367667E0	7.360659502E-4	-6.846340355E-3	-1.435076290E-1	1.436727314E-1
3.588408667E0	2.121365556E-3	-2.781684939E-3	-1.424598080E-1	1.425027539E-1
3.598418667E0	-6.919234120E-3	-6.340574473E-3	-1.472498471E-1	1.475486230E-1
3.608458667E0	-6.848799154E-3	2.060805475E-3	-1.518907821E-1	1.520590762E-1
3.618498667E0	-1.690995923E-3	-1.995097389E-3	-1.476989132E-1	1.477220662E-1
3.628538667E0	-1.024725971E-3	1.102931052E-4	-1.421610153E-1	1.421647512E-1
3.638579667E0	-7.712745824E-4	1.361588119E-3	-1.435082138E-1	1.435167454E-1
3.648619667E0	1.573551399E-3	-3.763596900E-3	-1.372212875E-1	1.372819087E-1
3.658629667E0	9.847944556E-4	-6.564979646E-3	-1.403653353E-1	1.405222265E-1
3.668669667E0	3.835016014E-3	1.881478680E-3	-1.436584872E-1	1.437219825E-1
3.678709667E0	-3.350479979E-3	3.904149346E-3	-1.435099679E-1	1.436021552E-1
3.688750667E0	6.283242067E-3	-3.621591786E-3	-1.358752584E-1	1.360686625E-1
3.698790667E0	-8.695313312E-3	-1.048103356E-2	-1.468025351E-1	1.474328486E-1
3.708830667E0	-1.026415896E-2	-6.652185386E-3	-1.403659201E-1	1.408978213E-1
3.718840667E0	3.330388455E-3	-7.853769930E-3	-1.370727682E-1	1.373379663E-1
3.728880667E0	4.450330394E-3	-6.566477995E-3	-1.454547518E-1	1.456708925E-1
3.738920667E0	1.021774897E-2	-1.631619846E-3	-1.421616000E-1	1.425376620E-1
3.748961667E0	4.389494226E-3	-3.944787495E-3	-1.406641281E-1	1.407878757E-1
3.759001667E0	7.126583011E-3	-1.680115191E-3	-1.394654489E-1	1.396575182E-1
3.769011667E0	-2.945923177E-3	-3.276450746E-3	-1.497939706E-1	1.498587576E-1
3.779051667E0	1.786577628E-3	-1.157378680E-2	-1.429094589E-1	1.433884857E-1
3.789091667E0	-1.590444656E-3	1.196760591E-3	-1.457535446E-1	1.457671345E-1
3.799132667E0	-6.349028382E-3	1.282696389E-3	-1.411143637E-1	1.412629431E-1
3.809172667E0	-2.922201696E-3	-6.668722043E-3	-1.421627694E-1	1.423490925E-1
3.819212667E0	-2.455840567E-3	-8.954407778E-3	-1.469528085E-1	1.472458505E-1
3.829222667E0	7.299904990E-3	-9.662533002E-3	-1.448571664E-1	1.453624842E-1
3.839262667E0	-5.050371493E-3	-4.798544934E-3	-1.456061947E-1	1.457727554E-1
3.849303667E0	6.119813531E-4	-1.482908707E-3	-1.514446396E-1	1.514531360E-1
3.859343667E0	-8.857536431E-3	1.172713917E-3	-1.536893857E-1	1.539488827E-1
3.869383667E0	-4.661676976E-3	-1.401098851E-2	-1.500974411E-1	1.508220171E-1
3.879423667E0	6.216987518E-3	-3.435248332E-3	-1.521930832E-1	1.523587425E-1
3.889433667E0	4.610146960E-4	-2.802881096E-3	-1.393198532E-1	1.393488076E-1
3.899473667E0	1.109343290E-3	6.817305274E-3	-1.514452243E-1	1.516026459E-1
3.909514667E0	-2.039016032E-3	1.633757735E-3	-1.575830466E-1	1.576047059E-1
3.919554667E0	-1.531062584E-4	-1.950484961E-3	-1.430632406E-1	1.430766181E-1
3.929594667E0	-2.940961323E-3	-9.473585710E-3	-1.384223056E-1	1.387772775E-1
3.939635667E0	-5.475200832E-4	-1.026669656E-2	-1.541407907E-1	1.544832942E-1
3.949644667E0	-1.414970228E-3	-1.164948083E-3	-1.500997800E-1	1.501109696E-1
3.959685667E0	4.042681819E-3	-4.161317199E-3	-1.448606747E-1	1.449768082E-1
3.969725667E0	1.981598544E-3	-1.667717267E-3	-1.442619199E-1	1.442851674E-1
3.979765667E0	-1.931042684E-3	6.525145490E-3	-1.497998178E-1	1.499542992E-1
3.989805667E0	-2.706222452E-3	6.372158574E-3	-1.518954599E-1	1.520531446E-1
3.999815667E0	2.217567957E-3	-5.362170842E-4	-1.429141366E-1	1.429323462E-1
4.009856667E0	4.017760346E-3	-2.960226014E-3	-1.352794272E-1	1.353714473E-1
4.019896667E0	1.425278230E-3	4.456409728E-3	-1.345303988E-1	1.346117351E-1
4.029936667E0	-6.195536116E-7	-6.161649674E-3	-1.438116843E-1	1.439436225E-1
4.039976667E0	4.423812643E-3	-1.022554678E-2	-1.462061191E-1	1.466300146E-1
4.050017667E0	5.372470849E-3	-7.268819958E-5	-1.414160800E-1	1.415181134E-1
4.060026667E0	1.885078658E-3	-6.240769811E-3	-1.526427341E-1	1.527818870E-1
4.070067667E0	-1.879370485E-3	-6.021691086E-3	-1.478515255E-1	1.479860345E-1
4.080107667E0	-2.093889638E-3	-3.705280060E-3	-1.453062326E-1	1.453685478E-1
4.090147667E0	-6.335643740E-4	-1.367155764E-2	-1.536882162E-1	1.542964053E-1
4.100188667E0	-3.944943954E-3	-1.660490474E-3	-1.390193063E-1	1.390851801E-1
4.110228667E0	-6.785890195E-3	2.405553656E-3	-1.391689950E-1	1.393551010E-1
4.120238667E0	4.621624691E-3	-1.181651020E-2	-1.403665048E-1	1.409387988E-1
4.130278667E0	1.462036888E-3	-8.539620917E-3	-1.460546762E-1	1.463114182E-1
4.140318667E0	4.228998721E-4	-1.112137676E-2	-1.472533554E-1	1.476733373E-1
4.150358667E0	3.073991475E-3	-1.330522045E-2	-1.481514877E-1	1.487795067E-1
4.160399667E0	3.317214233E-3	-1.269421382E-2	-1.442601657E-1	1.448555915E-1
4.170439667E0	-2.251512642E-3	-1.699273959E-3	-1.493501669E-1	1.493768027E-1
4.180449667E0	-1.634387852E-3	-2.237857338E-3	-1.445601279E-1	1.445866861E-1
4.190489667E0	6.240543688E-4	-5.140342098E-3	-1.481526572E-1	1.482431192E-1
4.200529667E0	5.313505334E-3	7.102996577E-4	-1.474042135E-1	1.475016611E-1
4.210570667E0	4.525711796E-3	-4.143428374E-3	-1.459079111E-1	1.460368740E-1
4.220610667E0	-6.101897297E-3	2.312537245E-3	-1.382737863E-1	1.384276741E-1
4.230620667E0	-5.463937519E-4	-5.433826642E-3	-1.399221164E-1	1.400286531E-1
4.240660667E0	-4.613971348E-3	-1.326803581E-2	-1.524965537E-1	1.531421836E-1
4.250700667E0	-1.107907467E-3	-3.254925683E-3	-1.448624289E-1	1.449032274E-1
4.260741667E0	-8.355278879E-3	2.755509512E-3	-1.384258139E-1	1.387051170E-1
4.270781667E0	-6.881767401E-3	3.217001008E-3	-1.393245310E-1	1.395314758E-1
4.280821667E0	4.540349250E-3	-2.697421080E-3	-1.456120420E-1	1.457077816E-1
4.290831667E0	-2.102042621E-4	4.792377949E-3	-1.529479587E-1	1.530231654E-1
4.300871667E0	-1.005080411E-3	6.559826788E-3	-1.487560898E-1	1.489040489E-1
4.310911667E0	-4.142586409E-3	1.020590379E-2	-1.369312656E-1	1.373735527E-1
4.320952667E0	-9.375499809E-3	1.978999274E-3	-1.432181919E-1	1.435383813E-1
4.330992667E0	-6.426795208E-3	-3.449016698E-3	-1.480082309E-1	1.481878397E-1
4.341032667E0	-2.206497361E-3	-4.752370203E-3	-1.385778415E-1	1.386768611E-1
4.351042667E0	-2.151990634E-3	-5.159519138E-3	-1.469609946E-1	1.470672827E-1
4.361082667E0	4.807781136E-3	3.565431107E-4	-1.409734458E-1	1.410558552E-1
4.371123667E0	2.328442072E-3	3.209673716E-3	-1.387281150E-1	1.387847741E-1
4.381163667E0	1.636337590E-3	4.594038567E-3	-1.417207199E-1	1.418046024E-1
4.391203667E0	2.277728325E-3	-5.124417571E-3	-1.324388498E-1	1.325575220E-1
4.401243667E0	-6.316160635E-4	-1.384693757E-3	-1.372288889E-1	1.372373282E-1
4.411253667E0	-2.006955417E-3	4.225161485E-3	-1.442648435E-1	1.443406558E-1
4.421294667E0	1.388195234E-3	-1.019069189E-3	-1.384269834E-1	1.384376947E-1
4.431334667E0	-5.460551958E-3	-4.911816465E-3	-1.327388120E-1	1.329418511E-1
4.441374667E0	-9.355165318E-4	2.222078992E-3	-1.364810300E-1	1.365023237E-1
4.451411000E0	3.018151993E-3	-1.796575282E-3	-1.472586179E-1	1.473005006E-1
4.461452000E0	-1.729276057E-3	-4.937388897E-3	-1.367804074E-1	1.368804152E-1
4.471461000E0	-2.799336792E-3	1.154953913E-2	-1.381276059E-1	1.386378868E-1
4.481502000E0	-5.221349446E-4	2.827859670E-4	-1.436660886E-1	1.436673157E-1
4.491542000E0	-4.321170882E-3	-6.152330674E-3	-1.411213803E-1	1.413215046E-1
4.501582000E0	-4.765161273E-3	-2.119844081E-3	-1.408220029E-1	1.409185474E-1
4.511623000E0	-6.506631972E-4	-1.781025343E-4	-1.481567502E-1	1.481582860E-1
4.521632000E0	-2.300386286E-3	-1.140417187E-3	-1.539940256E-1	1.540154286E-1
4.531673000E0	-5.426627258E-4	-4.114904925E-3	-1.504014963E-1	1.504587552E-1
4.541713000E0	4.698234351E-3	-8.834256632E-3	-1.454623532E-1	1.458060825E-1
4.551753000E0	1.506574941E-3	1.853567362E-3	-1.421686167E-1	1.421886811E-1
4.561793000E0	-1.787360778E-4	1.894205511E-3	-1.412704843E-1	1.412832959E-1
4.571834000E0	-7.456070758E-4	1.528051039E-3	-1.412704843E-1	1.412807156E-1
4.581844000E0	1.361666776E-3	-5.670492696E-3	-1.388748801E-1	1.389972695E-1
4.591884000E0	1.081184578E-3	3.061784841E-3	-1.384263986E-1	1.384644768E-1
4.601924000E0	7.848046054E-3	-2.403790355E-3	-1.484561276E-1	1.486828567E-1
4.611964000E0	4.074128305E-3	-2.724930402E-3	-1.465101743E-1	1.465921380E-1
4.622005000E0	1.946835305E-3	-7.458324563E-3	-1.454629380E-1	1.456670282E-1
4.632045000E0	-3.009790874E-3	-4.760711621E-3	-1.369306809E-1	1.370464687E-1
4.642055000E0	-2.858424791E-3	-8.247607313E-3	-1.345350766E-1	1.348179530E-1
4.652095000E0	2.610065162E-3	2.756276960E-3	-1.432164377E-1	1.432667356E-1
4.662135000E0	-4.268782913E-3	5.096122529E-4	-1.412704843E-1	1.413358835E-1
4.672176000E0	-6.572020288E-3	2.213728437E-3	-1.372294736E-1	1.374045868E-1
4.682216000E0	2.301137745E-3	-6.530700345E-4	-1.421686167E-1	1.421887383E-1
4.692256000E0	-1.651460551E-3	-7.466263985E-3	-1.435163999E-1	1.437199689E-1
4.702266000E0	1.688277881E-3	-6.826944044E-3	-1.393257004E-1	1.395030761E-1
4.712306000E0	7.208220192E-3	-2.933557229E-3	-1.409722763E-1	1.411869218E-1
4.722346000E0	-5.764765915E-3	7.734185234E-3	-1.477088535E-1	1.480234966E-1
4.732387000E0	-1.595590720E-2	-5.367341973E-3	-1.424691635E-1	1.434603147E-1
4.742427000E0	-5.271859911E-3	-1.646448020E-3	-1.524977231E-1	1.525977026E-1
4.752437000E0	-3.831123390E-3	2.161478084E-3	-1.484567124E-1	1.485218669E-1
4.762477000E0	-5.483276157E-3	9.202421084E-4	-1.444151169E-1	1.445221061E-1
4.772517000E0	-6.474057156E-3	3.745854255E-3	-1.495051181E-1	1.496921013E-1
4.782558000E0	7.492752900E-3	5.375418440E-4	-1.517516184E-1	1.519374344E-1
4.792598000E0	-4.159011718E-3	2.966274228E-4	-1.379802561E-1	1.380432412E-1
4.802638000E0	-2.481892368E-3	-2.577489205E-3	-1.489075327E-1	1.489505171E-1
4.812648000E0	-7.832356787E-3	-1.308177458E-3	-1.436690122E-1	1.438882977E-1
4.822688000E0	-1.746141476E-3	-3.002938097E-3	-1.432205307E-1	1.432626507E-1
4.832729000E0	5.313839379E-3	4.868501388E-3	-1.385813498E-1	1.387686194E-1
4.842769000E0	-2.170244196E-3	-1.137091583E-3	-1.402273411E-1	1.402487437E-1
4.852809000E0	-5.365674032E-3	-3.577417899E-3	-1.360360569E-1	1.361888290E-1
4.862849000E0	-1.042565746E-2	-1.967067299E-3	-1.340895188E-1	1.345085973E-1
4.872859000E0	-1.425558485E-2	-3.183717560E-3	-1.423223984E-1	1.430699928E-1
4.882899000E0	-8.835734996E-3	-3.891961556E-4	-1.420241904E-1	1.422993055E-1
4.892940000E0	-5.382200696E-4	-4.599200562E-3	-1.519030613E-1	1.519736239E-1
4.902980000E0	8.789138854E-4	-2.518450599E-3	-1.525029856E-1	1.525263115E-1
4.913020000E0	-4.738554443E-3	-2.876683921E-3	-1.408278501E-1	1.409369099E-1
4.923061000E0	-1.169249270E-3	-2.708256701E-3	-1.391818589E-1	1.392131159E-1
4.933070000E0	9.430451074E-3	-5.097127520E-3	-1.471153611E-1	1.475054019E-1
4.943111000E0	2.970596828E-3	-3.412754824E-3	-1.457681626E-1	1.458383645E-1
4.953151000E0	2.100756405E-4	-4.202704523E-3	-1.444209641E-1	1.444822540E-1
4.963191000E0	-6.639038002E-4	6.218422484E-4	-1.456184739E-1	1.456213150E-1
4.973231000E0	-2.904273471E-3	2.243777644E-4	-1.429246616E-1	1.429543425E-1
4.983241000E0	-4.397627224E-4	2.341654552E-3	-1.430743504E-1	1.430941874E-1
4.993281000E0	-6.525605159E-3	5.266623683E-3	-1.469656724E-1	1.472047204E-1
5.003322000E0	-3.953959743E-4	-6.278630532E-3	-1.388824815E-1	1.390248942E-1
5.013362000E0	1.861864241E-3	-3.421443421E-3	-1.400799912E-1	1.401341384E-1
5.023402000E0	2.310448893E-3	-1.659403257E-3	-1.489116257E-1	1.489387930E-1
5.033443000E0	-9.184775226E-4	2.164602689E-3	-1.411272275E-1	1.411468153E-1
5.043452000E0	-3.895227203E-3	-4.539047331E-3	-1.447197568E-1	1.448433076E-1
5.053493000E0	-2.664735487E-3	-1.033110729E-2	-1.562463731E-1	1.566102222E-1
5.063533000E0	4.727337953E-3	-1.009360984E-2	-1.385836887E-1	1.390311744E-1
5.073573000E0	2.382286277E-3	-5.050048297E-3	-1.424767649E-1	1.425861382E-1
5.083614000E0	-1.021528846E-3	-7.283565905E-3	-1.454705393E-1	1.456563478E-1
5.093654000E0	7.407506320E-3	-3.307331353E-4	-1.418785948E-1	1.420722217E-1
5.103664000E0	6.710439985E-3	8.351194393E-4	-1.405308115E-1	1.406934129E-1
5.113704000E0	-1.297746973E-3	-1.184441239E-2	-1.468171531E-1	1.472998666E-1
5.123744000E0	-6.676620352E-3	-1.548209315E-2	-1.402302647E-1	1.412402195E-1
5.133784000E0	-3.092443894E-3	-1.791486377E-3	-1.361892539E-1	1.362361388E-1
5.143825000E0	-9.143127805E-3	4.728204757E-4	-1.418774253E-1	1.421725155E-1
5.153865000E0	-5.314978558E-3	-8.511810098E-4	-1.460692942E-1	1.461684378E-1
5.163875000E0	2.544946937E-3	4.772058874E-4	-1.432246238E-1	1.432480274E-1
5.173915000E0	7.963504581E-3	-3.903774759E-3	-1.390333396E-1	1.393159230E-1
5.183955000E0	1.269383980E-4	-5.199152296E-3	-1.418768406E-1	1.419721282E-1
5.193996000E0	-9.066179817E-3	1.319716573E-3	-1.421768028E-1	1.424716832E-1
5.204036000E0	-7.903239430E-3	6.055065896E-4	-1.529543906E-1	1.531596339E-1
5.214046000E0	-1.220721042E-3	-2.710549906E-3	-1.486134177E-1	1.486431471E-1
5.224086000E0	-2.475427312E-3	-4.791902862E-3	-1.394824058E-1	1.395866455E-1
5.234126000E0	8.339559918E-3	-4.027443370E-3	-1.519065696E-1	1.521886147E-1
5.244167000E0	3.214801164E-3	-5.334624974E-3	-1.523562205E-1	1.524834781E-1
5.254207000E0	-3.711893581E-3	5.925467843E-3	-1.403811228E-1	1.405551457E-1
5.264247000E0	-5.562692080E-3	2.478598170E-3	-1.396326792E-1	1.397654181E-1
5.274257000E0	-3.341032786E-3	-6.690585148E-3	-1.390339243E-1	1.392349042E-1
5.284297000E0	7.780134984E-3	-7.153684627E-3	-1.430749351E-1	1.434647788E-1
5.294337000E0	4.173769656E-3	-7.339543859E-3	-1.454699546E-1	1.457147795E-1
5.304378000E0	-6.327407960E-3	-7.065154128E-3	-1.397829527E-1	1.401043409E-1
5.314418000E0	-7.437383080E-3	7.989946101E-4	-1.397823679E-1	1.399823683E-1
5.324458000E0	9.397185042E-4	4.217304289E-5	-1.366389048E-1	1.366421427E-1
5.334468000E0	-9.331338199E-4	-5.909525044E-4	-1.462183982E-1	1.462225699E-1
5.344508000E0	1.881636281E-3	-6.426281864E-3	-1.363389426E-1	1.365032781E-1
5.354549000E0	-8.887063157E-3	-1.022698117E-2	-1.382843113E-1	1.389464709E-1
5.364589000E0	-5.376530781E-3	2.909976505E-3	-1.391824436E-1	1.393166453E-1
5.374629000E0	-1.919842182E-3	-8.011060031E-3	-1.526544285E-1	1.528765430E-1
5.384669000E0	-4.454868838E-3	-7.697174186E-3	-1.373861790E-1	1.376737249E-1
5.394679000E0	-7.827616773E-3	-2.715245951E-3	-1.361892539E-1	1.364410387E-1
5.404719000E0	-1.040649983E-2	-3.258781191E-3	-1.525053245E-1	1.528946987E-1
5.414760000E0	-9.336018541E-3	-1.160120476E-2	-1.408301890E-1	1.416152934E-1
5.424800000E0	1.953807710E-3	1.445751479E-3	-1.313997996E-1	1.314222770E-1
5.434840000E0	1.075736075E-3	6.469743121E-3	-1.315500730E-1	1.317134636E-1
5.444809125E0	-2.350093615E-3	-7.095989054E-3	-1.351420176E-1	1.353485904E-1
5.454849125E0	-2.858563262E-4	8.211628664E-3	-1.351426023E-1	1.353921546E-1
5.464890125E0	-2.778269114E-3	-4.820481129E-4	-1.318494505E-1	1.318795994E-1
5.474930125E0	-1.314895475E-3	2.290683277E-3	-1.444227183E-1	1.444468682E-1
5.484970125E0	1.203572141E-2	2.497491986E-4	-1.435245860E-1	1.440285657E-1
5.495011125E0	4.863547243E-3	-4.518618621E-3	-1.363401121E-1	1.365016416E-1
5.505020125E0	-8.656355096E-3	-1.764260279E-3	-1.418785948E-1	1.421533705E-1
5.515061125E0	-2.990710336E-3	8.018085826E-4	-1.490642381E-1	1.490963927E-1
5.525101125E0	6.824277394E-4	-1.463996619E-4	-1.457705015E-1	1.457721724E-1
5.535141125E0	-7.406168998E-3	-7.649976192E-3	-1.378358299E-1	1.382464808E-1
5.545181125E0	4.552446819E-3	-2.868634863E-3	-1.441227561E-1	1.442231697E-1
5.555222125E0	3.426796993E-3	-1.409215517E-3	-1.421762180E-1	1.422244909E-1
5.565231125E0	8.451807615E-4	-2.031057766E-3	-1.433737278E-1	1.433906041E-1
5.575272125E0	4.394698762E-3	-2.593294960E-3	-1.420265293E-1	1.421181677E-1
5.585312125E0	-3.962260620E-3	-6.910632318E-3	-1.444221336E-1	1.446416572E-1
5.595352125E0	-8.616877254E-5	1.824431783E-3	-1.418762559E-1	1.418880120E-1
5.605393125E0	-1.131979266E-2	9.762109257E-5	-1.522053623E-1	1.526257500E-1
5.615433125E0	-5.946349940E-4	-1.168630002E-3	-1.459190208E-1	1.459249119E-1
5.625443125E0	6.204959041E-3	-1.148429699E-4	-1.447215110E-1	1.448545148E-1
5.635483125E0	-1.379455388E-3	-5.265847100E-3	-1.397829527E-1	1.398889056E-1
5.645523125E0	-2.109996034E-3	-3.541658521E-3	-1.495133042E-1	1.495701293E-1
5.655563125E0	-1.803116283E-3	-4.711119924E-3	-1.396338487E-1	1.397249354E-1
5.665604125E0	-3.750420108E-3	4.764092043E-3	-1.490659922E-1	1.491892498E-1
5.675614125E0	-6.488487330E-3	4.906800650E-3	-1.424796885E-1	1.427117332E-1
5.685654125E0	6.038148942E-3	-1.704244092E-3	-1.420300376E-1	1.421685453E-1
5.695694125E0	2.913795467E-3	9.613443799E-3	-1.345456016E-1	1.349200779E-1
5.705734125E0	-5.510527379E-3	-3.039464923E-3	-1.412804246E-1	1.414205170E-1
5.715775125E0	-3.058317054E-3	-4.402852887E-3	-1.415798020E-1	1.416812576E-1
5.725815125E0	-4.905595804E-3	-3.594932137E-3	-1.357425267E-1	1.358787031E-1
5.735825125E0	3.758712134E-3	-5.346867582E-3	-1.423294151E-1	1.424793996E-1
5.745865125E0	-7.170418856E-3	-3.286592010E-4	-1.538560313E-1	1.540233790E-1
5.755905125E0	-5.772810975E-3	-5.935124885E-3	-1.427796507E-1	1.430195081E-1
5.765946125E0	-5.970430876E-3	3.478545137E-4	-1.403846312E-1	1.405119629E-1
5.775986125E0	-4.351429081E-4	-6.534893895E-3	-1.439771605E-1	1.441260453E-1
5.786026125E0	5.841985135E-4	-6.414998565E-3	-1.439765757E-1	1.441206018E-1
5.796036125E0	-4.762650796E-3	-2.361197043E-3	-1.417318296E-1	1.418314832E-1
5.806076125E0	-4.760025830E-3	-7.584907645E-3	-1.372411680E-1	1.375330028E-1
5.816116125E0	-6.533724451E-3	-1.786470562E-3	-1.387386400E-1	1.389038921E-1
5.826157125E0	3.279436594E-3	-6.236886894E-3	-1.364938939E-1	1.366756618E-1
5.836197125E0	-1.017644359E-3	1.191753913E-3	-1.354466575E-1	1.354557231E-1
5.846237125E0	-6.843845010E-3	-5.230179084E-3	-1.409851402E-1	1.412480186E-1
5.856247125E0	-5.163992486E-3	-9.755330142E-3	-1.450267357E-1	1.454461665E-1
5.866287125E0	-7.260631572E-3	-2.898181574E-3	-1.486186802E-1	1.488241524E-1
5.876328125E0	-5.855995041E-3	-2.467141282E-3	-1.433795750E-1	1.435203191E-1
5.886368125E0	5.132801816E-5	-3.001439748E-3	-1.400858384E-1	1.401179982E-1
5.896408125E0	-6.042194028E-3	-5.834315233E-3	-1.505640489E-1	1.507981438E-1
5.906418125E0	-4.591961206E-3	7.752046650E-3	-1.511628038E-1	1.514310852E-1
5.916458125E0	-8.689765881E-3	-1.718195183E-3	-1.417318296E-1	1.420083651E-1
5.926499125E0	5.702395424E-3	-2.509707185E-3	-1.345467710E-1	1.346909408E-1
5.936539125E0	6.058175085E-3	-3.875086857E-3	-1.427790660E-1	1.429600625E-1
5.946579125E0	2.657463583E-3	-8.231600560E-4	-1.245176268E-1	1.245487016E-1
5.956619125E0	-5.291960000E-4	-1.914223088E-3	-1.433784056E-1	1.433921598E-1
5.966629125E0	-2.228378739E-3	-6.483812984E-3	-1.433789903E-1	1.435428172E-1
5.976669125E0	-1.114815347E-4	4.533236660E-4	-1.480193406E-1	1.480200768E-1
5.986710125E0	5.953395150E-3	5.828394927E-4	-1.466721421E-1	1.467940731E-1
5.996750125E0	-6.314514392E-3	-5.958815245E-3	-1.421820652E-1	1.424469033E-1
6.006790125E0	3.891566983E-3	-5.768954325E-3	-1.385895360E-1	1.387641330E-1
6.016831125E0	-2.120619237E-4	-1.171148873E-2	-1.370932335E-1	1.375927273E-1
6.026840125E0	4.313643448E-3	7.792410711E-3	-1.477199632E-1	1.479882317E-1
6.036881125E0	-3.719994030E-4	2.298924197E-3	-1.490677464E-1	1.490859365E-1
6.046921125E0	-5.024098994E-3	-6.030763406E-4	-1.423323387E-1	1.424222592E-1
6.056961125E0	6.111494954E-3	9.668553807E-4	-1.323037791E-1	1.324483867E-1
6.067001125E0	6.964984586E-4	-9.649276268E-4	-1.402372813E-1	1.402423305E-1
6.077042125E0	-6.400904148E-3	6.148621347E-4	-1.478725755E-1	1.480123246E-1
6.087052125E0	8.027704610E-4	2.220014194E-3	-1.357483739E-1	1.357688989E-1
6.097092125E0	-2.258789970E-3	1.211268995E-3	-1.421855736E-1	1.422086729E-1
6.107132125E0	6.891194894E-4	1.213365770E-2	-1.400893468E-1	1.406155241E-1
6.117172125E0	-3.171084377E-3	1.015189013E-2	-1.396402806E-1	1.400447236E-1
6.127213125E0	9.131009108E-3	1.267411401E-3	-1.384421861E-1	1.387487678E-1
6.137222125E0	1.096596188E-2	-8.022562601E-4	-1.293117589E-1	1.297783762E-1
6.147263125E0	5.351377475E-3	-2.795498986E-3	-1.355992699E-1	1.357336143E-1
6.157303125E0	-4.614365064E-3	-3.465544218E-3	-1.526631993E-1	1.527722317E-1
6.167343125E0	-9.983291610E-3	-8.852319047E-4	-1.435310179E-1	1.438805159E-1
6.177384125E0	-3.944997058E-3	3.440264147E-4	-1.430825365E-1	1.431373243E-1
6.187424125E0	2.122523293E-3	9.260619152E-4	-1.427825743E-1	1.428013523E-1
6.197434125E0	-5.113267890E-3	-5.243134322E-3	-1.358968931E-1	1.360940907E-1
6.207474125E0	-5.227417646E-3	-1.683002254E-3	-1.333533543E-1	1.334663834E-1
6.217514125E0	2.271348636E-3	9.000281012E-3	-1.412868565E-1	1.415914542E-1
6.227554125E0	5.319543269E-3	3.146322789E-3	-1.442806309E-1	1.444129404E-1
6.237595125E0	3.053221582E-3	-9.132985398E-4	-1.406881016E-1	1.407241920E-1
6.247635125E0	-3.971307245E-4	-8.038313538E-3	-1.388924217E-1	1.391254003E-1
6.257645125E0	5.537473108E-3	8.195238188E-6	-1.391912144E-1	1.393013204E-1
6.267685125E0	7.729061497E-3	-1.747522624E-3	-1.400887620E-1	1.403126989E-1
6.277725125E0	5.785686270E-3	-5.246067066E-3	-1.323055333E-1	1.325358424E-1
6.287766125E0	-4.442285048E-5	5.302191200E-3	-1.302093065E-1	1.303172233E-1
6.297806125E0	-4.060492701E-3	1.230528262E-2	-1.361962706E-1	1.368112996E-1
6.307846125E0	9.596048904E-4	-5.650283257E-3	-1.344005907E-1	1.345227316E-1
6.317856125E0	3.309007289E-3	4.905704297E-3	-1.430819517E-1	1.432042610E-1
6.327896125E0	-4.549772175E-3	1.327180909E-3	-1.390403563E-1	1.391211073E-1
6.337937125E0	-4.643562028E-3	-1.348422747E-4	-1.408366209E-1	1.409132167E-1
6.347977125E0	-3.292222240E-3	-5.379319629E-3	-1.450279051E-1	1.451649719E-1
6.358017125E0	7.069443609E-4	-3.484063447E-3	-1.375428843E-1	1.375888204E-1
6.368027125E0	4.195228481E-3	-6.969232382E-3	-1.333516002E-1	1.335994738E-1
6.378067125E0	5.289529465E-3	-9.225490177E-3	-1.403869700E-1	1.407891691E-1
6.388107125E0	-5.714424471E-3	4.273035564E-4	-1.361951011E-1	1.363156000E-1
6.398148125E0	-2.025615116E-3	-3.061154438E-3	-1.430801976E-1	1.431272746E-1
6.408188125E0	3.057839684E-3	-1.078266766E-2	-1.477211326E-1	1.481457031E-1
6.418228125E0	-2.633663303E-3	4.919838114E-3	-1.478708214E-1	1.479760818E-1
6.428238125E0	-8.357656023E-3	7.474961719E-3	-1.391888756E-1	1.396397814E-1
6.438278125E0	-3.756273034E-3	4.661217593E-3	-1.415838951E-1	1.417103944E-1
6.448310375E0	6.139978431E-3	5.997982454E-3	-1.453261131E-1	1.455793745E-1
6.458350375E0	-6.171057753E-3	7.689910848E-3	-1.454752171E-1	1.458089691E-1
6.468390375E0	-5.734050331E-3	7.791323494E-4	-1.472708970E-1	1.473845429E-1
6.478430375E0	5.160787938E-3	-3.413385227E-3	-1.421814805E-1	1.423160509E-1
6.488440375E0	5.355553895E-3	-2.545667561E-3	-1.453249437E-1	1.454458718E-1
6.498481375E0	6.549199016E-3	-3.835572470E-3	-1.511622190E-1	1.513526349E-1
6.508521375E0	4.176992477E-3	-1.317816228E-4	-1.507125682E-1	1.507704972E-1
6.518561375E0	-6.009413075E-4	-3.780005649E-3	-1.423305845E-1	1.423820384E-1
6.528601375E0	5.872670455E-3	-2.482809993E-3	-1.417329991E-1	1.418763392E-1
6.538642375E0	3.788121801E-3	-3.566637095E-3	-1.315535814E-1	1.316564299E-1
6.548651375E0	-4.287139973E-3	2.328087185E-3	-1.360448277E-1	1.361322691E-1
6.558692375E0	-4.371499477E-3	3.700154610E-3	-1.423317540E-1	1.424469352E-1
6.568732375E0	-1.035187005E-3	4.183417847E-3	-1.538583702E-1	1.539187145E-1
6.578772375E0	-6.957962217E-3	5.536673684E-4	-1.426323009E-1	1.428029868E-1
6.588813375E0	9.172856671E-4	3.185416907E-3	-1.415856493E-1	1.416244483E-1
6.598822375E0	-2.904531285E-3	1.485594772E-3	-1.423346776E-1	1.423720609E-1
6.608863375E0	2.641225568E-4	-6.463165004E-3	-1.469750279E-1	1.471173039E-1
6.618903375E0	4.311765373E-3	4.495430756E-3	-1.384427708E-1	1.385828309E-1
6.628943375E0	2.183156179E-3	9.860936338E-3	-1.306601268E-1	1.310498873E-1
6.638983375E0	2.949104884E-3	2.509369142E-4	-1.430842906E-1	1.431148993E-1
6.649024375E0	6.815068600E-3	3.717312533E-3	-1.495209056E-1	1.497222922E-1
6.659033375E0	7.041016091E-3	1.289036963E-4	-1.477246410E-1	1.478924003E-1
6.669074375E0	1.125286374E-3	2.119926307E-3	-1.456295836E-1	1.456493597E-1
6.679114375E0	3.462169507E-3	8.258808386E-3	-1.463780272E-1	1.466517009E-1
6.689154375E0	-1.144896531E-3	-5.121530509E-3	-1.559575206E-1	1.560457917E-1
6.699195375E0	-8.159825988E-3	-7.785640731E-3	-1.438315648E-1	1.442730674E-1
6.709235375E0	-4.082430038E-3	-4.170791516E-3	-1.376931578E-1	1.378167894E-1
6.719245375E0	2.945868644E-3	-3.481130702E-3	-1.499688023E-1	1.500381221E-1
6.729285375E0	-1.994900389E-3	1.487193620E-3	-1.450290745E-1	1.450504183E-1
6.739325375E0	-1.650715802E-3	3.127227975E-3	-1.418856114E-1	1.419296697E-1
6.749366375E0	3.954426835E-3	-1.428319467E-3	-1.394911766E-1	1.395545268E-1
6.759406375E0	8.480396731E-3	5.424142191E-3	-1.376943272E-1	1.380618202E-1
6.769446375E0	3.698280817E-3	1.352438140E-2	-1.462271690E-1	1.468978255E-1
6.779456375E0	2.054258478E-3	8.885401497E-3	-1.427843285E-1	1.430752767E-1
6.789496375E0	7.363738997E-3	4.370684065E-3	-1.411371678E-1	1.413967032E-1
6.799536375E0	-1.272820647E-3	4.624051228E-3	-1.412868565E-1	1.413682346E-1
6.809577375E0	-1.886286645E-4	5.522393687E-3	-1.445800084E-1	1.446855599E-1
6.819617375E0	-5.160961527E-4	-5.408372981E-3	-1.400893468E-1	1.401946573E-1
6.829627375E0	1.154569847E-3	3.620796930E-4	-1.373955345E-1	1.374008626E-1
6.839667375E0	-2.510183698E-3	7.219867799E-3	-1.421849889E-1	1.423903036E-1
6.849707375E0	3.408555564E-4	4.123940701E-3	-1.423340929E-1	1.423942311E-1
6.859748375E0	-9.866279917E-4	9.287050394E-3	-1.474240941E-1	1.477196204E-1
6.869788375E0	3.853121826E-3	-3.335836530E-4	-1.385918748E-1	1.386458279E-1
6.879828375E0	6.768821350E-3	-2.871732060E-3	-1.486210191E-1	1.488027927E-1
6.889838375E0	6.273494233E-4	2.200818881E-3	-1.344005907E-1	1.344200727E-1
6.899878375E0	-1.260459553E-3	-5.321934689E-3	-1.408372056E-1	1.409433583E-1
6.909919375E0	1.225821082E-3	-2.148906570E-3	-1.444297349E-1	1.444509217E-1
6.919959375E0	1.024950552E-2	2.586186938E-3	-1.411359984E-1	1.415313066E-1
6.929999375E0	1.027099175E-2	-4.407448433E-3	-1.412851024E-1	1.417264937E-1
6.940039375E0	-4.085209178E-3	-3.950698664E-3	-1.370938182E-1	1.372115591E-1
6.950049375E0	6.967123045E-4	-5.402370449E-3	-1.403869700E-1	1.404926061E-1
6.960089375E0	1.553171797E-3	-7.047475437E-3	-1.510154539E-1	1.511877858E-1
6.970130375E0	3.715594343E-3	1.287748748E-3	-1.436801219E-1	1.437339256E-1
6.980170375E0	1.037292516E-2	6.764040794E-4	-1.453266978E-1	1.456979897E-1
6.990210375E0	3.037922605E-4	-8.310720697E-3	-1.480210948E-1	1.482545273E-1
7.000220375E0	6.677006931E-3	7.918865886E-4	-1.487689537E-1	1.489208215E-1
7.010260375E0	4.088471399E-3	7.326159216E-3	-1.487701231E-1	1.490065023E-1
7.020301375E0	8.375607089E-3	6.684801886E-3	-1.397882152E-1	1.401983683E-1
7.030341375E0	1.474228104E-3	1.023477442E-2	-1.348479027E-1	1.352437829E-1
7.040381375E0	-9.291539160E-3	-1.240797434E-3	-1.426323009E-1	1.429400067E-1
7.050421375E0	2.450671434E-4	-2.154662423E-3	-1.390397716E-1	1.390566816E-1
7.060431375E0	-9.034377588E-3	3.973813439E-3	-1.327528453E-1	1.331192289E-1
7.070471375E0	-2.018288680E-3	-1.947716670E-3	-1.391900450E-1	1.392183024E-1
7.080512375E0	4.706166064E-3	-1.127706802E-2	-1.420335460E-1	1.425582283E-1
7.090552375E0	1.426495067E-3	-8.154216316E-4	-1.427819896E-1	1.427914435E-1
7.100592375E0	6.050525168E-3	9.065733282E-3	-1.418838573E-1	1.423018810E-1
7.110633375E0	3.637402965E-3	-2.617423860E-3	-1.435304332E-1	1.436003721E-1
7.120642375E0	-6.083017186E-4	-5.335858371E-4	-1.498167747E-1	1.498189599E-1
7.130683375E0	4.139258521E-3	-7.115668589E-3	-1.544571251E-1	1.546763385E-1
7.140723375E0	-4.093354738E-3	-8.674901733E-3	-1.492191893E-1	1.495271745E-1
7.150763375E0	1.381300773E-3	-5.864154305E-3	-1.411354136E-1	1.412639419E-1
7.160804375E0	-4.005487475E-3	-4.113890799E-3	-1.423340929E-1	1.424498579E-1
7.170844375E0	5.966727259E-3	-7.709115297E-3	-1.423340929E-1	1.426675376E-1
7.180854375E0	7.401937761E-3	-5.928930491E-3	-1.474229246E-1	1.477276535E-1
7.190894375E0	-4.267769358E-3	5.175580708E-3	-1.444297349E-1	1.445854378E-1
7.200934375E0	-4.972190108E-3	2.937376192E-3	-1.327540147E-1	1.328795668E-1
7.210974375E0	-1.468938201E-3	-9.144040290E-4	-1.421844041E-1	1.421949320E-1
7.221015375E0	2.276465235E-3	-5.518675223E-4	-1.453284520E-1	1.453473282E-1
7.231024375E0	3.108100613E-3	-5.750343734E-3	-1.414371300E-1	1.415880944E-1
7.241065375E0	-7.478505451E-3	-9.042910868E-3	-1.364974022E-1	1.370008872E-1
7.251105375E0	1.623040314E-3	-2.317945920E-3	-1.381451476E-1	1.381741254E-1
7.261145375E0	5.204978955E-3	-3.629357619E-3	-1.364985716E-1	1.366459809E-1
7.271186375E0	6.027338445E-3	3.763350220E-3	-1.379948741E-1	1.381777004E-1
7.281226375E0	9.126707065E-3	2.643754603E-3	-1.426358092E-1	1.429519510E-1
7.291236375E0	5.106784562E-3	-1.684564557E-3	-1.421867430E-1	1.422883934E-1
7.301276375E0	4.300745027E-3	-7.238204302E-3	-1.357501280E-1	1.360109748E-1
7.311316375E0	-1.946383916E-3	-4.353599232E-3	-1.457792723E-1	1.458572538E-1
7.321356375E0	-6.290915395E-3	-5.682735303E-3	-1.411395067E-1	1.413938805E-1
7.331397375E0	2.884156251E-3	-1.383705212E-2	-1.393438268E-1	1.400588606E-1
7.341437375E0	-3.183433764E-3	-8.381974502E-3	-1.387456566E-1	1.390350638E-1
7.351447375E0	-1.795075220E-3	-8.778835991E-3	-1.457798570E-1	1.460549793E-1
7.361487375E0	-4.484220548E-4	-1.310234947E-2	-1.456307530E-1	1.462196597E-1
7.371527375E0	1.859764611E-3	-4.863549527E-3	-1.417388463E-1	1.418344577E-1
7.381568375E0	5.209920538E-4	-4.993796255E-4	-1.356016088E-1	1.356035291E-1
7.391608375E0	7.425575016E-3	4.379564524E-3	-1.597009081E-1	1.599334230E-1
7.401648375E0	5.791195444E-3	1.643369095E-3	-1.472767442E-1	1.473997219E-1
7.411658375E0	2.355322990E-3	4.305880470E-3	-1.489227355E-1	1.490035882E-1
7.421698375E0	3.996663261E-3	1.054380890E-3	-1.486239427E-1	1.486814090E-1
7.431739375E0	2.346627541E-3	6.469944119E-4	-1.433848375E-1	1.434054981E-1
7.441779375E0	1.022063603E-4	-8.732542489E-4	-1.378475243E-1	1.378503281E-1
7.451794750E0	2.092002712E-3	-1.519938027E-3	-1.387450719E-1	1.387691668E-1
7.461804750E0	5.494618270E-3	-1.125040837E-2	-1.441338658E-1	1.446766526E-1
7.471844750E0	4.928527853E-3	-1.309234525E-2	-1.493729711E-1	1.500266122E-1
7.481884750E0	7.004258574E-3	1.426081080E-4	-1.417376769E-1	1.419107079E-1
7.491925750E0	6.739897047E-3	3.025632603E-3	-1.502693492E-1	1.504508490E-1
7.501965750E0	7.785017181E-3	7.704254799E-4	-1.507184154E-1	1.509213066E-1
7.512005750E0	1.274730128E-4	-1.044586804E-3	-1.552090770E-1	1.552126444E-1
7.522015750E0	-6.632616628E-3	1.102565601E-4	-1.610463524E-1	1.611829128E-1
7.532055750E0	-6.268134666E-3	-4.095773567E-3	-1.424849510E-1	1.426815550E-1
7.542096750E0	-1.376989593E-2	-9.268695619E-3	-1.345520335E-1	1.355720048E-1
7.552136750E0	-4.691173438E-3	-8.418327738E-3	-1.412886107E-1	1.416169018E-1
7.562176750E0	-2.670247230E-3	-3.471409706E-3	-1.421867430E-1	1.422541767E-1
7.572217750E0	4.663853979E-3	-6.673463769E-3	-1.394923460E-1	1.397297436E-1
7.582226750E0	1.431424202E-2	6.617193455E-3	-1.408389598E-1	1.417190791E-1
7.592267750E0	1.926072608E-2	9.598862305E-3	-1.436830455E-1	1.452856885E-1
7.602307750E0	1.233548828E-2	4.237175686E-3	-1.376954967E-1	1.383118496E-1
7.612347750E0	1.354125267E-2	3.427893631E-3	-1.391935533E-1	1.398926777E-1
7.622387750E0	2.149543825E-3	4.007188249E-3	-1.463780272E-1	1.464486427E-1
7.632397750E0	-8.555365002E-3	3.371997904E-3	-1.399414122E-1	1.402432298E-1
7.642437750E0	-1.299726404E-2	-1.486723102E-2	-1.396420348E-1	1.410314196E-1
7.652478750E0	-1.410767085E-2	-1.973110031E-2	-1.423370165E-1	1.443889502E-1
7.662518750E0	-1.745335286E-2	-1.322855797E-2	-1.384445250E-1	1.401659758E-1
7.672558750E0	-6.166049932E-3	-7.385828225E-3	-1.442823851E-1	1.446028260E-1
7.682599750E0	-2.741206960E-3	-7.011633832E-4	-1.379948741E-1	1.380238788E-1
7.692608750E0	1.801296737E-3	5.136258183E-3	-1.402407897E-1	1.403463747E-1
7.702649750E0	1.065917949E-2	1.702499064E-3	-1.427854979E-1	1.431929294E-1
7.712689750E0	1.782988500E-2	2.044580366E-2	-1.369476378E-1	1.396087074E-1
7.722729750E0	1.761149149E-2	1.441162328E-2	-1.415874034E-1	1.434045059E-1
7.732769750E0	5.241039831E-3	-1.541700633E-3	-1.379954588E-1	1.381035553E-1
7.742810750E0	2.292690688E-3	3.820296619E-3	-1.350016844E-1	1.350751861E-1
7.752820750E0	-2.524609590E-4	5.227301158E-3	-1.403904784E-1	1.404879882E-1
7.762860750E0	1.832514245E-3	-1.236041090E-2	-1.327557689E-1	1.333425365E-1
7.772900750E0	-3.374562342E-3	-1.442609514E-2	-1.336544859E-1	1.344731256E-1
7.782940750E0	-4.514767396E-3	-1.454568897E-2	-1.408395445E-1	1.416606420E-1
7.792981750E0	2.080855030E-2	-1.455794072E-2	-1.378469396E-1	1.401667156E-1
7.803021750E0	1.043634119E-2	-4.234864209E-3	-1.333574474E-1	1.338322086E-1
7.813031750E0	7.036818544E-3	8.010146404E-3	-1.379983824E-1	1.384096558E-1
7.823071750E0	8.442602819E-4	7.789322650E-3	-1.387474108E-1	1.389684508E-1
7.833111750E0	-3.317363268E-3	9.638541145E-3	-1.345567113E-1	1.349422652E-1
7.843152750E0	-4.279117182E-3	2.844667674E-2	-1.353057396E-1	1.383299224E-1
7.853192750E0	-5.803867456E-3	2.154580196E-2	-1.445864403E-1	1.462981380E-1
7.863202750E0	-1.264595716E-2	8.985370612E-3	-1.421914208E-1	1.430351609E-1
7.873242750E0	-1.291233209E-2	9.873215491E-3	-1.332112670E-1	1.341992934E-1
7.883282750E0	-7.590059362E-3	6.913236156E-4	-1.293199450E-1	1.295443364E-1
7.893322750E0	-1.873139546E-2	-2.171856891E-3	-1.365061730E-1	1.378024579E-1
7.903363750E0	-9.183897288E-3	-7.463852009E-3	-1.547687817E-1	1.552205812E-1
7.913403750E0	2.613031596E-4	-9.079876235E-3	-1.624029064E-1	1.626567442E-1
7.923413750E0	-8.335893988E-3	-7.313560294E-3	-1.481824780E-1	1.485968441E-1
7.933453750E0	-1.223405850E-2	-1.572789548E-2	-1.381527489E-1	1.395823088E-1
7.943493750E0	-5.791198870E-3	-1.673436575E-2	-1.384515417E-1	1.395793909E-1
7.953534750E0	1.855359214E-3	-1.004299488E-2	-1.323137194E-1	1.327072886E-1
7.963574750E0	-2.174390494E-3	-4.225170622E-3	-1.420434862E-1	1.421229469E-1
7.973614750E0	-4.399475892E-3	-4.007955696E-3	-1.498267150E-1	1.499448686E-1
7.983624750E0	-1.241378729E-2	6.966372728E-3	-1.451869494E-1	1.458831133E-1
7.993664750E0	-6.394623531E-3	6.609455030E-3	-1.359068334E-1	1.362176328E-1
8.003705750E0	7.184271161E-3	8.395423098E-3	-1.338111913E-1	1.342666444E-1
8.013745750E0	9.080595145E-3	4.883969100E-3	-1.397993249E-1	1.401790341E-1
8.023785750E0	3.069160670E-3	-1.615658775E-4	-1.369558239E-1	1.369903046E-1
8.033795750E0	2.239013648E-3	5.542520899E-4	-1.353086632E-1	1.353283220E-1
8.043835750E0	1.856442433E-3	-9.239075817E-3	-1.324651623E-1	1.327999477E-1
8.053875750E0	-1.171119066E-3	-1.112059104E-2	-1.324657470E-1	1.329368767E-1
8.063916750E0	-5.442521520E-3	-1.672901189E-2	-1.402501452E-1	1.413491567E-1
8.073956750E0	-8.513374685E-4	-3.428542307E-3	-1.368073046E-1	1.368529074E-1
8.083996750E0	-7.205262323E-3	-1.044900178E-2	-1.409985888E-1	1.415687094E-1
8.094006750E0	3.689338974E-3	-1.033160065E-2	-1.435432971E-1	1.439619093E-1
8.104046750E0	-1.712068169E-3	-4.255731460E-3	-1.414470702E-1	1.415214334E-1
8.114087750E0	-2.352239497E-3	7.012675367E-3	-1.439917785E-1	1.441816317E-1
8.124127750E0	-3.868021091E-3	3.210441163E-3	-1.377060217E-1	1.377977392E-1
8.134167750E0	-2.252816845E-4	-7.870863900E-3	-1.351613134E-1	1.353904793E-1
8.144207750E0	1.205171674E-3	-4.437059099E-3	-1.350116247E-1	1.350898913E-1
8.154217750E0	4.317399028E-3	1.017943600E-2	-1.386035693E-1	1.390439149E-1
8.164258750E0	-5.966586788E-4	-1.943376940E-4	-1.347122473E-1	1.347137088E-1
8.174298750E0	-5.354573458E-3	7.375714369E-4	-1.326171899E-1	1.327272938E-1
8.184338750E0	-8.142351721E-3	2.232832387E-3	-1.383053613E-1	1.385628247E-1
8.194378750E0	-1.168348376E-2	8.334712554E-3	-1.450407690E-1	1.457490854E-1
8.204419750E0	2.545594471E-5	5.080727907E-3	-1.550704980E-1	1.551537102E-1
8.214428750E0	-3.872372812E-3	-5.350896679E-3	-1.492326379E-1	1.493787387E-1
8.224469750E0	-2.841227753E-3	-7.217629412E-3	-1.526748937E-1	1.528718088E-1
8.234509750E0	-2.418802396E-3	-9.339218521E-3	-1.392029089E-1	1.395368104E-1
8.244549750E0	-7.962940416E-3	-1.168386977E-2	-1.335153222E-1	1.342619175E-1
8.254590750E0	2.888006049E-3	-9.386014519E-3	-1.432445043E-1	1.435807294E-1
8.264599750E0	9.381443527E-3	-9.509683130E-3	-1.365073425E-1	1.371593967E-1
8.274640750E0	-2.297624561E-4	-1.505450637E-2	-1.315676147E-1	1.324263123E-1
8.284680750E0	-2.995400956E-3	-5.039505037E-3	-1.502787048E-1	1.503930123E-1
8.294720750E0	-1.006530795E-3	4.488669913E-3	-1.505774975E-1	1.506477481E-1
8.304760750E0	-1.221795239E-2	4.138832828E-3	-1.396502209E-1	1.402447592E-1
8.314801750E0	-1.540616386E-2	1.533395760E-3	-1.357577294E-1	1.366377045E-1
8.324810750E0	-6.109279978E-3	2.497144807E-3	-1.375545788E-1	1.377128214E-1
8.334851750E0	-6.106506548E-3	6.920691356E-3	-1.303689355E-1	1.306952360E-1
8.344891750E0	8.057859455E-3	2.744810935E-4	-1.454886657E-1	1.457118948E-1
8.354931750E0	3.462336815E-3	2.551304642E-3	-1.398004943E-1	1.398666334E-1
8.364972750E0	3.483762235E-3	-2.612334955E-4	-1.414470702E-1	1.414902065E-1
8.375012750E0	3.826148974E-4	7.951071253E-3	-1.451904577E-1	1.454085105E-1
8.385022750E0	4.876247806E-3	9.979497772E-3	-1.435432971E-1	1.439723803E-1
8.395062750E0	3.681987699E-3	1.323305301E-2	-1.459383166E-1	1.465832970E-1
8.405102750E0	-1.085405622E-2	-1.307081105E-3	-1.568650085E-1	1.572455083E-1
8.415143750E0	-2.708062098E-2	1.481145406E-3	-1.556674987E-1	1.580124172E-1
8.425183750E0	-2.814397370E-2	1.138233617E-3	-1.427936840E-1	1.455452336E-1
8.435193750E0	-2.646513301E-2	-7.619141266E-3	-1.532713097E-1	1.557258776E-1
8.445233750E0	-2.420338203E-2	-1.108755427E-2	-1.535706872E-1	1.558611354E-1
8.455268417E0	-2.354848703E-2	-8.713392857E-3	-1.390497118E-1	1.412985379E-1
8.465308417E0	-1.352587860E-2	-5.642343834E-3	-1.374025512E-1	1.381819326E-1
8.475349417E0	3.359750728E-4	5.536079826E-3	-1.362044567E-1	1.363173323E-1
8.485389417E0	5.230447463E-3	3.979340885E-3	-1.433889306E-1	1.435394654E-1
8.495399417E0	1.487272649E-2	5.976402573E-4	-1.278207189E-1	1.286844643E-1
8.505439417E0	2.019471142E-2	4.660303965E-3	-1.305157006E-1	1.321510231E-1
8.515479417E0	1.127455554E-2	2.541072015E-4	-1.251263219E-1	1.256335011E-1
8.525520417E0	9.030116658E-3	-1.262686120E-2	-1.357536364E-1	1.366383197E-1
8.535560417E0	1.322590159E-2	-2.225258416E-2	-1.438368273E-1	1.461476475E-1
8.545600417E0	1.301332790E-2	-2.792992906E-2	-1.329095507E-1	1.364345129E-1
8.555610417E0	3.778917861E-3	-2.566247019E-2	-1.360518444E-1	1.385025160E-1
8.565650417E0	1.048953657E-3	-1.714431038E-2	-1.465288854E-1	1.475321725E-1
8.575691417E0	-4.880895886E-3	-1.070912065E-2	-1.573064733E-1	1.577461091E-1
8.585731417E0	-6.719262771E-3	-3.369458020E-3	-1.367991185E-1	1.370054764E-1
8.595771417E0	-5.542580285E-3	5.673535075E-3	-1.471270555E-1	1.473406925E-1
8.605811417E0	9.182177384E-3	1.660160654E-2	-1.466779894E-1	1.478998252E-1
8.615821417E0	1.427553391E-2	3.031128986E-2	-1.477263951E-1	1.514782261E-1
8.625861417E0	6.059233180E-3	3.675632849E-2	-1.393438268E-1	1.442374572E-1
8.635902417E0	8.024615978E-3	2.241681783E-2	-1.333568627E-1	1.354657189E-1
8.645942417E0	-1.944152096E-3	1.165345511E-2	-1.365003258E-1	1.370106627E-1
8.655982417E0	-1.553059306E-2	-3.492879951E-3	-1.415891576E-1	1.424811885E-1
8.665992417E0	-1.632145639E-2	-1.310833373E-2	-1.305121922E-1	1.321803718E-1
8.676032417E0	-3.474974852E-3	-2.690676682E-2	-1.394929308E-1	1.421067461E-1
8.686073417E0	-3.294062057E-3	-2.448086668E-2	-1.272190404E-1	1.295949379E-1
8.696113417E0	8.232550733E-3	-1.791329233E-2	-1.329060423E-1	1.343602509E-1
8.706153417E0	5.863257237E-3	-9.661939144E-3	-1.333551085E-1	1.338331641E-1
8.716193417E0	5.452710179E-3	-9.144149926E-3	-1.373972887E-1	1.378091523E-1
8.726203417E0	4.408234153E-3	1.439650275E-2	-1.472767442E-1	1.480443556E-1
8.736243417E0	2.819719820E-3	2.674648002E-2	-1.454810643E-1	1.479461560E-1
8.746284417E0	-9.101987732E-4	1.531124482E-2	-1.541630101E-1	1.549241633E-1
8.756324417E0	-8.573083094E-3	8.661197321E-3	-1.447320360E-1	1.452441955E-1
8.766364417E0	-1.112509066E-2	1.248703966E-2	-1.424861205E-1	1.434642406E-1
8.776405417E0	-1.603237553E-2	4.154985761E-3	-1.526637840E-1	1.535595387E-1
8.786414417E0	-2.105306213E-2	-1.650011167E-3	-1.385936290E-1	1.401932522E-1
8.796455417E0	-1.868509625E-2	-1.675825710E-2	-1.329054576E-1	1.352546955E-1
8.806495417E0	-2.455755885E-2	-1.978055497E-2	-1.317079479E-1	1.354301576E-1
8.816535417E0	-6.321902212E-3	-2.167097806E-2	-1.370955724E-1	1.389416917E-1
8.826576417E0	9.839267379E-3	-1.148792409E-2	-1.454769713E-1	1.462611799E-1
8.836585417E0	1.110488122E-2	-7.777061770E-3	-1.397887999E-1	1.404446854E-1
8.846626417E0	4.657769506E-3	-1.107353009E-3	-1.454763865E-1	1.455551445E-1
8.856666417E0	-4.678346394E-3	-3.379105926E-3	-1.439806688E-1	1.440962812E-1
8.866706417E0	2.361101398E-3	4.958722098E-3	-1.507160765E-1	1.508161113E-1
8.876746417E0	3.403296496E-3	-2.646860937E-3	-1.355981004E-1	1.356666250E-1
8.886787417E0	4.436275092E-4	-8.794431612E-3	-1.349987608E-1	1.352856395E-1
8.896796417E0	-4.734309216E-3	-3.867978835E-3	-1.442794615E-1	1.444089262E-1
8.906837417E0	-4.309672024E-4	-9.026383348E-3	-1.346987987E-1	1.350015840E-1
8.916877417E0	2.854472781E-3	4.361465564E-3	-1.300590330E-1	1.301634452E-1
8.926917417E0	4.385169057E-3	1.150396739E-2	-1.408366209E-1	1.413737061E-1
8.936958417E0	9.552830328E-3	5.827161530E-3	-1.426328856E-1	1.430711446E-1
8.946998417E0	5.974091096E-3	1.241610562E-2	-1.462254149E-1	1.468731473E-1
8.957008417E0	-1.552081954E-2	1.019621934E-2	-1.522129637E-1	1.533415959E-1
8.967048417E0	-1.326819341E-2	4.047369584E-4	-1.635887218E-1	1.641264106E-1
8.977088417E0	-1.384933698E-2	-1.552060255E-2	-1.423340929E-1	1.438460539E-1
8.987128417E0	-1.458104978E-2	-4.105494563E-3	-1.246708238E-1	1.255877240E-1
8.997169417E0	-1.058164450E-2	-4.561312431E-3	-1.273652208E-1	1.278854028E-1
9.007209417E0	8.547555772E-6	-8.213419374E-4	-1.320055711E-1	1.320081266E-1
9.017219417E0	1.203731112E-2	1.010207003E-3	-1.361968553E-1	1.367314915E-1
9.027259417E0	1.219909969E-2	6.891921228E-3	-1.483222264E-1	1.489825475E-1
9.037299417E0	4.201569626E-3	-4.549371321E-3	-1.543103600E-1	1.544345724E-1
9.047340417E0	-5.428979849E-3	-1.172914915E-4	-1.674835521E-1	1.675715602E-1
9.057380417E0	-1.765534218E-2	5.442570057E-3	-1.594009459E-1	1.604680474E-1
9.067390417E0	-1.486288558E-2	-1.034880426E-2	-1.390426952E-1	1.402172393E-1
9.077430417E0	-2.436901584E-2	-6.923660645E-3	-1.456284142E-1	1.478154965E-1
9.087470417E0	-3.024392354E-2	-2.012582392E-2	-1.490712547E-1	1.534339685E-1
9.097511417E0	-3.017315852E-2	-1.854372268E-2	-1.357495433E-1	1.402933628E-1
9.107551417E0	-1.396425647E-2	-3.766794596E-4	-1.367979491E-1	1.375093496E-1
9.117591417E0	-4.841548807E-3	7.508519255E-3	-1.332048351E-1	1.335041068E-1
9.127601417E0	1.217345760E-2	1.041520670E-2	-1.363477135E-1	1.372857187E-1
9.137641417E0	2.755601789E-2	1.408765099E-2	-1.406881016E-1	1.440518586E-1
9.147681417E0	3.433999632E-2	1.898510523E-2	-1.349999303E-1	1.405868086E-1
9.157722417E0	2.460654984E-2	1.001289999E-2	-1.388906676E-1	1.414084792E-1
9.167762417E0	7.090249190E-3	4.496143386E-4	-1.418844420E-1	1.420622000E-1
9.177802417E0	-3.096125527E-3	-8.061464857E-3	-1.390403563E-1	1.393082693E-1
9.187812417E0	-9.778661903E-3	-2.637128977E-2	-1.329042882E-1	1.358477713E-1
9.197852417E0	-1.929238783E-2	-2.303945493E-2	-1.408377904E-1	1.440079717E-1
9.207893417E0	-1.886872052E-2	-2.559069562E-2	-1.378440160E-1	1.414633700E-1
9.217933417E0	-1.996609443E-2	-1.650436917E-2	-1.480240184E-1	1.502735810E-1
9.227973417E0	-1.458542492E-2	-4.133478971E-3	-1.439830077E-1	1.447788892E-1
9.237983417E0	-1.402284854E-2	1.693134382E-3	-1.492221129E-1	1.498891122E-1
9.248023417E0	-6.976460317E-3	2.012620764E-2	-1.537127745E-1	1.551816751E-1
9.258064417E0	4.675981527E-3	2.221695269E-2	-1.327563536E-1	1.346837303E-1
9.268104417E0	1.666901512E-2	2.071724237E-2	-1.299122679E-1	1.326056468E-1
9.278144417E0	3.264345411E-2	1.912275234E-2	-1.381457323E-1	1.432323919E-1
9.288184417E0	2.515158343E-2	1.793545693E-2	-1.442829698E-1	1.475528995E-1
9.298194417E0	1.151421829E-2	-4.656576365E-4	-1.321581835E-1	1.326596378E-1
9.308234417E0	-5.839476942E-4	-4.414885361E-3	-1.382948363E-1	1.383665203E-1
9.318275417E0	-1.473496860E-2	-2.147981065E-2	-1.498208678E-1	1.520683859E-1
9.328315417E0	-1.952915210E-2	-2.180466916E-2	-1.492221129E-1	1.520660066E-1
9.338355417E0	-1.868246043E-2	-9.284656690E-3	-1.450302440E-1	1.465230728E-1
9.348396417E0	-4.427499701E-3	-8.442593683E-3	-1.546103221E-1	1.549039439E-1
9.358405417E0	-4.866025457E-3	-7.679376723E-3	-1.496694249E-1	1.499452826E-1
9.368446417E0	-1.081814724E-2	9.947301541E-4	-1.388918370E-1	1.393160586E-1
9.378486417E0	-1.707496377E-2	1.119345283E-2	-1.354489964E-1	1.369791167E-1
9.388526417E0	-1.149894016E-2	1.162466671E-2	-1.327545995E-1	1.337577743E-1
9.398566417E0	3.010687942E-3	1.185440747E-2	-1.302104759E-1	1.307836353E-1
9.408576417E0	1.951329838E-2	1.610871367E-2	-1.421861583E-1	1.444200924E-1
9.418617417E0	1.761262667E-2	2.367995345E-2	-1.288632774E-1	1.321994292E-1
9.428657417E0	1.150383948E-2	1.657086298E-2	-1.233242100E-1	1.249631650E-1
9.438697417E0	2.022608311E-2	-8.936062139E-3	-1.348496568E-1	1.366505675E-1
9.448697875E0	3.496644667E-3	-1.231167801E-2	-1.384427708E-1	1.390331066E-1
9.458738875E0	-1.097062709E-2	-2.689902839E-2	-1.471241319E-1	1.499647378E-1
9.468747875E0	-2.369413980E-2	-2.532840231E-2	-1.453272825E-1	1.494086988E-1
9.478788875E0	-4.803626416E-3	-2.862372860E-2	-1.469738585E-1	1.498122416E-1
9.488828875E0	-1.017668370E-2	-1.416249535E-2	-1.459254527E-1	1.469638694E-1
9.498868875E0	-6.878462353E-3	-9.486833308E-4	-1.475726134E-1	1.477358774E-1
9.508909875E0	-4.782023695E-3	3.051314671E-3	-1.516136241E-1	1.517197063E-1
9.518949875E0	-3.949461841E-3	1.412467117E-2	-1.448776317E-1	1.456181058E-1
9.528959875E0	-6.051355427E-3	1.362793193E-2	-1.469726890E-1	1.477271497E-1
9.538999875E0	-4.875369582E-3	1.890747431E-2	-1.441291881E-1	1.454458135E-1
9.549039875E0	4.785016396E-3	5.467073545E-3	-1.373931956E-1	1.375851572E-1
9.559079875E0	7.761418184E-3	4.301175289E-4	-1.372440916E-1	1.374640509E-1
9.569120875E0	5.365572391E-3	-8.473620471E-4	-1.514651048E-1	1.515624801E-1
9.579160875E0	-1.217151614E-3	-1.308514587E-2	-1.456278294E-1	1.462195856E-1
9.589170875E0	-1.186532418E-2	-1.983313423E-2	-1.308080614E-1	1.328340621E-1
9.599210875E0	-1.425912744E-2	-2.061107886E-2	-1.400887620E-1	1.423130371E-1
9.609250875E0	-1.411711291E-3	-2.715659824E-2	-1.378440160E-1	1.405006993E-1
9.619291875E0	5.314343587E-3	-1.917058074E-2	-1.457763487E-1	1.471274864E-1
9.629331875E0	2.610560520E-4	-2.100360976E-2	-1.397887999E-1	1.413581563E-1
9.639341875E0	2.482102502E-3	-1.212876979E-3	-1.408366209E-1	1.408637132E-1
9.649381875E0	-2.423446764E-4	1.632773758E-2	-1.438303953E-1	1.447544002E-1
9.659421875E0	1.804942539E-3	1.719799513E-2	-1.402390355E-1	1.413011533E-1
9.669462875E0	6.954658311E-3	2.093643987E-2	-1.338035899E-1	1.356101120E-1
9.679502875E0	5.280900825E-3	2.693959345E-2	-1.360500902E-1	1.387921347E-1
9.689542875E0	-2.917762895E-3	1.319331022E-2	-1.489239049E-1	1.495356353E-1
9.699552875E0	-4.576064660E-3	4.255868504E-3	-1.460798192E-1	1.462134274E-1
9.709592875E0	-1.655506750E-2	-3.445471823E-3	-1.385947984E-1	1.396225615E-1
9.719632875E0	-1.320156599E-2	-6.833677478E-3	-1.350028539E-1	1.358188170E-1
9.729673875E0	-1.403575809E-2	-1.132412896E-2	-1.408407140E-1	1.419906515E-1
9.739713875E0	-1.990428525E-2	-1.454651124E-2	-1.580555016E-1	1.599666313E-1
9.749753875E0	-1.311910997E-2	-2.134259295E-2	-1.472784984E-1	1.493940207E-1
9.759763875E0	-6.257674203E-3	-1.839885791E-2	-1.423381859E-1	1.436587471E-1
9.769803875E0	-1.951375748E-2	-1.526894387E-2	-1.514680284E-1	1.534812399E-1
9.779844875E0	-8.640059408E-3	-7.957210829E-3	-1.445823473E-1	1.450586880E-1
9.789884875E0	5.570420797E-3	3.274258040E-3	-1.411395067E-1	1.412873338E-1
9.799924875E0	6.027346440E-3	2.443816373E-3	-1.338041747E-1	1.339621525E-1
9.809934875E0	1.204637887E-2	-2.282159133E-3	-1.327569383E-1	1.333218968E-1
9.819974875E0	6.499043154E-3	7.476514885E-3	-1.430854601E-1	1.434279775E-1
9.830015875E0	-2.282029512E-3	1.245040320E-2	-1.414394689E-1	1.420047307E-1
9.840055875E0	3.022891435E-3	1.004021745E-3	-1.547623497E-1	1.547951253E-1
9.850095875E0	-4.470095582E-3	-8.924586978E-3	-1.537139440E-1	1.540376791E-1
9.860135875E0	-5.222723885E-3	-1.924579055E-2	-1.369476378E-1	1.383919535E-1
9.870145875E0	-1.235097312E-2	-2.309469284E-2	-1.347028917E-1	1.372252907E-1
9.880185875E0	-4.494259029E-3	-2.103651862E-2	-1.519165099E-1	1.534319375E-1
9.890226875E0	-1.220611064E-2	-1.248213348E-2	-1.475761217E-1	1.486051967E-1
9.900266875E0	-4.487653503E-3	-8.155952208E-3	-1.406916100E-1	1.409992472E-1
9.910306875E0	-1.385455779E-3	-9.049543804E-3	-1.270699364E-1	1.273993032E-1
9.920347875E0	9.358359587E-3	6.348102763E-3	-1.264705968E-1	1.269751517E-1
9.930356875E0	1.565962581E-2	1.391602607E-2	-1.314097399E-1	1.330691527E-1
9.940397875E0	2.300686355E-2	1.850556959E-2	-1.347040612E-1	1.379019796E-1
9.950437875E0	1.850613604E-2	2.605328347E-2	-1.396443737E-1	1.432543254E-1
9.960477875E0	4.399583243E-3	1.042046006E-2	-1.480275267E-1	1.484590549E-1
9.970517875E0	-8.938905804E-3	8.638831722E-3	-1.409921569E-1	1.415391174E-1
9.980527875E0	-2.075594820E-2	-1.814281382E-3	-1.555119628E-1	1.569014709E-1
9.990567875E0	-2.168541337E-2	-1.342896215E-2	-1.360518444E-1	1.384221750E-1
1.000060888E1	-1.581007741E-2	-2.052324272E-2	-1.345543724E-1	1.370256953E-1
1.001064888E1	-2.400992371E-2	-8.814165965E-3	-1.411400914E-1	1.434388070E-1
1.002068887E1	-9.190534791E-3	-1.021165964E-2	-1.347040612E-1	1.354028361E-1
1.003072988E1	-3.333666950E-3	-4.161627833E-3	-1.345537877E-1	1.346594010E-1
1.004073888E1	-3.428392129E-3	9.005835867E-3	-1.414394689E-1	1.417673527E-1
1.005077988E1	1.873265741E-2	1.867304664E-2	-1.496717638E-1	1.519908945E-1
1.006081988E1	1.720109004E-2	1.837614513E-2	-1.487736315E-1	1.508878843E-1
1.007085988E1	2.223276529E-2	1.586508578E-2	-1.493712169E-1	1.518478095E-1
1.008090088E1	1.366793968E-2	8.967152881E-3	-1.547600108E-1	1.556209605E-1
1.009094088E1	-3.573204363E-3	1.209743237E-3	-1.478749144E-1	1.479230259E-1
1.010095088E1	-1.533268651E-2	-5.136431772E-3	-1.366488451E-1	1.376022568E-1
1.011099088E1	-1.949296332E-2	-1.817616122E-2	-1.294637865E-1	1.321787444E-1
1.012103088E1	-1.835461322E-2	-2.846355144E-2	-1.305116075E-1	1.348345107E-1
1.013107088E1	-6.328502028E-3	-2.387545145E-2	-1.510201317E-1	1.530266882E-1
1.014111188E1	-7.114061176E-3	-8.463579705E-3	-1.430866295E-1	1.435131548E-1
1.015112088E1	-2.525520934E-3	-4.367659958E-3	-1.388953453E-1	1.389869478E-1
1.016116188E1	1.768500081E-3	2.637094259E-3	-1.483269042E-1	1.483608856E-1
1.017120188E1	4.313880706E-3	3.489837572E-3	-1.453337145E-1	1.454395995E-1
1.018124188E1	5.012229831E-3	2.010770668E-2	-1.412921190E-1	1.428037297E-1
1.019128288E1	7.301930388E-3	2.300267229E-2	-1.336585790E-1	1.358199428E-1
1.020132288E1	1.139986525E-2	5.249237353E-3	-1.541665184E-1	1.546765232E-1
1.021133288E1	8.210815536E-4	-7.261940343E-3	-1.523702538E-1	1.525454168E-1
1.022137288E1	-3.356097931E-3	-1.368914497E-2	-1.424913830E-1	1.431867672E-1
1.023141288E1	-1.508698126E-2	-1.217594951E-2	-1.360547680E-1	1.374291477E-1
1.024145388E1	-1.880520628E-2	-1.574695375E-2	-1.396472973E-1	1.417849427E-1
1.025149388E1	-1.644198212E-2	-2.558329524E-2	-1.308162475E-1	1.343046327E-1
1.026153388E1	-9.864096347E-3	-2.337715904E-2	-1.456348461E-1	1.478286182E-1
1.027154387E1	4.138824548E-3	-1.290650429E-2	-1.335100597E-1	1.341962882E-1
1.028158388E1	7.772916185E-3	-1.393807190E-2	-1.317137951E-1	1.326770963E-1
1.029162388E1	5.510965920E-3	-2.060056301E-3	-1.424919677E-1	1.426133775E-1
1.030166488E1	6.343144621E-3	7.115476727E-3	-1.502763659E-1	1.505783903E-1
1.031170488E1	6.599177864E-3	1.152356470E-2	-1.415950048E-1	1.422163390E-1
1.032174488E1	-2.834157133E-3	1.726543911E-2	-1.450378454E-1	1.460893714E-1
1.033175488E1	-7.235417739E-3	4.253995568E-3	-1.525222814E-1	1.527530493E-1
1.034179488E1	-1.037451602E-2	-5.807938809E-3	-1.508757055E-1	1.513434546E-1
1.035183588E1	-1.079194669E-2	-1.256684502E-2	-1.357571447E-1	1.367640086E-1
1.036187588E1	-7.521742870E-3	-2.735470922E-2	-1.272248876E-1	1.303496404E-1
1.037191588E1	-1.326707993E-2	-1.663340078E-2	-1.300695580E-1	1.317982373E-1
1.038192588E1	-4.657564225E-3	-9.850027626E-3	-1.278248119E-1	1.282883412E-1
1.039196588E1	2.280058361E-3	-4.830302624E-3	-1.338129455E-1	1.339195089E-1
1.040200588E1	-4.604763411E-3	1.757481163E-3	-1.420458251E-1	1.421313091E-1
1.041204687E1	3.889481914E-4	-7.216743194E-4	-1.366576159E-1	1.366600749E-1
1.042208688E1	-5.287578871E-3	1.797536418E-2	-1.225868762E-1	1.240105415E-1
1.043212688E1	1.467913083E-3	2.174380330E-2	-1.234838390E-1	1.253922097E-1
1.044213688E1	6.380319551E-3	1.073101116E-2	-1.415967590E-1	1.421460700E-1
1.045217863E1	1.478284153E-2	1.012477367E-2	-1.442911559E-1	1.453993849E-1
1.046221963E1	1.053798567E-2	-1.398580894E-4	-1.540215075E-1	1.543816488E-1
1.047225963E1	-2.851979720E-3	2.893823572E-3	-1.471358263E-1	1.471919135E-1
1.048229963E1	-1.862405223E-2	-1.217981416E-2	-1.350116247E-1	1.368332635E-1
1.049234063E1	-1.419871268E-2	-1.330613407E-2	-1.411482775E-1	1.424833074E-1
1.050234962E1	-8.396075199E-3	-1.178759390E-2	-1.380048144E-1	1.387615590E-1
1.051239063E1	-1.185666641E-2	-3.668488283E-3	-1.427954382E-1	1.433337905E-1
1.052243063E1	-3.582252987E-3	1.033440549E-3	-1.445917028E-1	1.446397631E-1
1.053247063E1	-4.205934767E-3	3.436481729E-3	-1.561177343E-1	1.562121835E-1
1.054251063E1	-8.185504630E-3	6.315869987E-3	-1.469861376E-1	1.473493039E-1
1.055252063E1	-7.876819609E-3	1.681949755E-2	-1.350110400E-1	1.362825033E-1
1.056256063E1	7.058771298E-5	6.717528021E-3	-1.320178503E-1	1.321886643E-1
1.057260162E1	4.483574156E-3	6.753671123E-3	-1.412991357E-1	1.415314815E-1
1.058264163E1	-2.591373487E-3	-3.827623911E-3	-1.369581628E-1	1.370361422E-1
1.059268163E1	-4.846942064E-4	-8.931466592E-3	-1.393531823E-1	1.396399493E-1
1.060272263E1	5.442992609E-3	-9.988350822E-3	-1.386047387E-1	1.390707263E-1
1.061273163E1	2.370351019E-3	-4.718739577E-3	-1.333656335E-1	1.334701362E-1
1.062277263E1	-1.366847758E-3	-7.401615707E-3	-1.317208117E-1	1.319356829E-1
1.063281263E1	-7.836918072E-3	-1.870305930E-2	-1.306735754E-1	1.322376838E-1
1.064285262E1	-6.029969692E-3	-2.553524757E-3	-1.492343920E-1	1.493779930E-1
1.065289263E1	-1.358514447E-2	-4.382277997E-3	-1.594132251E-1	1.600510445E-1
1.066293363E1	-1.303287724E-2	6.133336360E-3	-1.624069995E-1	1.630444945E-1
1.067294363E1	-2.148163106E-2	1.412321851E-2	-1.507318640E-1	1.529085367E-1
1.068298363E1	-3.878529862E-2	2.683588760E-3	-1.478871936E-1	1.529121416E-1
1.069302363E1	-2.696795245E-2	-1.749587422E-3	-1.411506164E-1	1.437143974E-1
1.070306363E1	-1.667689744E-2	-9.905457404E-4	-1.345643127E-1	1.355973980E-1
1.071310462E1	-3.444773469E-3	4.792058179E-3	-1.374083984E-1	1.375350800E-1
1.072311363E1	4.203394882E-3	2.134361621E-3	-1.393543518E-1	1.394340682E-1
1.073315463E1	9.238440846E-4	2.250200445E-3	-1.363617468E-1	1.363834406E-1
1.074319463E1	-1.504471742E-3	6.010444332E-3	-1.323201513E-1	1.324651325E-1
1.075323463E1	7.828823333E-3	-2.107875561E-3	-1.243860644E-1	1.246500166E-1
1.076327563E1	1.693328871E-2	-8.604031652E-3	-1.261823291E-1	1.276038628E-1
1.077331563E1	2.018371135E-2	-6.733635273E-3	-1.282785559E-1	1.300311960E-1
1.078332563E1	1.606492693E-2	-1.338655156E-2	-1.454933435E-1	1.469884167E-1
1.079336563E1	1.253069735E-2	-6.435701363E-3	-1.430983239E-1	1.437900099E-1
1.080340563E1	9.566484491E-3	-3.234277703E-3	-1.477392590E-1	1.480839857E-1
1.081344563E1	-1.289787508E-2	-3.230614057E-3	-1.383100390E-1	1.389476842E-1
1.082348663E1	-1.724239171E-2	-5.413891291E-3	-1.436994177E-1	1.448313949E-1
1.083352663E1	-2.976202389E-2	-4.197414620E-3	-1.573210913E-1	1.601665450E-1
1.084353663E1	-2.882193779E-2	-2.887556087E-3	-1.606142431E-1	1.632053222E-1
1.085357662E1	-1.856751468E-2	3.702182863E-3	-1.520819861E-1	1.532559599E-1
1.086361663E1	-1.824298850E-2	1.768799180E-2	-1.459453332E-1	1.481408518E-1
1.087365763E1	-1.883272816E-2	1.444981291E-2	-1.414552563E-1	1.434331143E-1
1.088369763E1	-2.797854774E-2	1.741824330E-2	-1.460950220E-1	1.497663172E-1
1.089370763E1	-2.450335562E-2	1.795992387E-2	-1.621111304E-1	1.649332953E-1
1.090374763E1	-2.298555776E-2	1.886485359E-2	-1.583694971E-1	1.611369485E-1
1.091378763E1	-9.769228699E-3	-3.153805397E-3	-1.383106238E-1	1.386910702E-1
1.092382863E1	-3.243511050E-3	-9.470799146E-3	-1.269342810E-1	1.273284261E-1
1.093386863E1	8.647615107E-3	-1.043355234E-2	-1.359150195E-1	1.365889190E-1
1.094390863E1	4.526591162E-3	-7.788134934E-3	-1.288796496E-1	1.291940756E-1
1.095391863E1	3.196744174E-3	-1.410945014E-2	-1.410038513E-1	1.417440716E-1
1.096395863E1	9.713301566E-5	-2.419642705E-2	-1.516317505E-1	1.535502011E-1
1.097399863E1	2.740991972E-3	-1.745963976E-2	-1.498354858E-1	1.508742021E-1
1.098403963E1	7.344877159E-3	-1.580887942E-2	-1.405547851E-1	1.416316190E-1
1.099407963E1	2.544362216E-3	7.223869488E-4	-1.426510119E-1	1.426755299E-1
1.100411963E1	3.689139118E-3	2.068306357E-3	-1.348671985E-1	1.349334979E-1
1.101412963E1	-8.553117479E-3	1.006758059E-2	-1.258858752E-1	1.265771132E-1
1.102416963E1	-1.300111270E-2	1.623036317E-2	-1.291796118E-1	1.308427519E-1
1.103421062E1	-1.214946802E-2	1.184814912E-2	-1.492373157E-1	1.501990832E-1
1.104425063E1	-2.149675616E-2	1.725965585E-2	-1.496869665E-1	1.522044487E-1
1.105429063E1	-1.684252211E-2	1.012654611E-2	-1.377118689E-1	1.391070678E-1
1.106430063E1	-2.057345111E-2	4.687310793E-3	-1.288814038E-1	1.305972971E-1
1.107434063E1	4.512481614E-3	5.979052093E-4	-1.300794983E-1	1.301591175E-1
1.108438163E1	1.361263324E-2	-9.237746489E-3	-1.498384094E-1	1.507388095E-1
1.109442163E1	6.480091094E-3	-7.978772437E-3	-1.428036243E-1	1.431730683E-1
1.110446163E1	1.126690648E-3	-3.272517580E-3	-1.309788001E-1	1.310245201E-1
1.111450163E1	5.999744041E-3	-1.241886478E-2	-1.345713294E-1	1.352762648E-1
1.112451163E1	8.994832366E-3	-2.074297012E-2	-1.291831201E-1	1.311466978E-1
1.113455163E1	4.878058502E-3	-1.289140660E-2	-1.393625379E-1	1.400424963E-1
1.114459263E1	3.874676867E-3	-8.064932073E-3	-1.372668958E-1	1.375581947E-1
1.115463263E1	4.872296939E-3	1.551234336E-3	-1.386152637E-1	1.387095416E-1
1.116467263E1	2.283012233E-5	6.966094072E-3	-1.463996619E-1	1.465653028E-1
1.117471362E1	-1.149205826E-2	8.000946175E-3	-1.312811011E-1	1.320257931E-1
1.118472263E1	-1.431125674E-2	6.860999507E-3	-1.309817237E-1	1.319397488E-1
1.119476363E1	-1.116258364E-2	-2.004795545E-3	-1.374183387E-1	1.378855405E-1
1.120480363E1	-1.376145744E-2	-1.250389152E-2	-1.486455774E-1	1.498039809E-1
1.121484363E1	-1.028905988E-2	1.970470562E-3	-1.535853052E-1	1.539421758E-1
1.122488363E1	-7.548613795E-3	3.638457349E-3	-1.487952662E-1	1.490310410E-1
1.123492463E1	-9.303118246E-3	-5.906272531E-3	-1.140686524E-1	1.145996925E-1
1.124493462E1	-1.056311727E-2	6.908613201E-3	-1.178114551E-1	1.184856419E-1
1.125497463E1	-4.831983699E-3	1.502984300E-2	-1.663111854E-1	1.670588358E-1
1.126501463E1	-3.290308761E-3	-3.443658273E-3	-1.764894336E-1	1.765536890E-1
1.127505463E1	-2.967376577E-3	-8.452634448E-3	-1.535864747E-1	1.538475140E-1
1.128509563E1	-8.757521634E-3	-1.284377006E-2	-1.432579529E-1	1.440989163E-1
1.129510463E1	-1.825990431E-2	-1.046057744E-2	-1.508914930E-1	1.523518639E-1
1.130514563E1	-2.132528428E-2	-1.203059596E-2	-1.443063587E-1	1.463688087E-1
1.131518562E1	-1.676394443E-2	-3.276729402E-3	-1.202064747E-1	1.214140162E-1
1.132522563E1	-1.190923654E-3	-1.130861100E-2	-1.327820814E-1	1.332680911E-1
1.133526663E1	-2.664981024E-3	-8.615040863E-3	-1.375721204E-1	1.378673615E-1
1.134530663E1	-2.717587407E-3	6.634716829E-4	-1.440087354E-1	1.440359030E-1
1.135531663E1	-2.399828923E-3	1.166131231E-3	-1.507447278E-1	1.507683389E-1
1.136535663E1	-1.307784941E-2	1.512921369E-2	-1.522421998E-1	1.535500265E-1
1.137539663E1	-1.394644530E-2	1.549209737E-2	-1.392198658E-1	1.407717282E-1
1.138543663E1	-9.179431933E-3	3.505200217E-3	-1.511949635E-1	1.515139115E-1
1.139547763E1	-1.237533843E-2	-1.170621710E-3	-1.470030946E-1	1.475277234E-1
1.140551763E1	-9.665691869E-3	-6.108572488E-3	-1.188627845E-1	1.194114810E-1
1.141552763E1	-1.196848071E-2	-4.556397116E-3	-1.483520472E-1	1.489037783E-1
1.142556763E1	-1.352137899E-2	-6.611798485E-3	-1.440116590E-1	1.447960687E-1
1.143560763E1	-1.326880211E-2	-3.551539402E-3	-1.381726295E-1	1.388537003E-1
1.144564863E1	-1.406693449E-2	8.056366816E-3	-1.362272608E-1	1.371883752E-1
1.145565363E1	-8.561197371E-3	5.690153958E-3	-1.498495191E-1	1.502016988E-1
1.146566363E1	2.554750731E-4	4.087340785E-3	-1.434129041E-1	1.434713654E-1
1.147570363E1	-6.223887118E-5	-5.742221586E-3	-1.479029810E-1	1.480144209E-1
1.148574363E1	-1.177263667E-2	-8.920507631E-3	-1.502980006E-1	1.510220494E-1
1.149578463E1	-7.995243998E-3	-1.172039660E-2	-1.318862879E-1	1.326472185E-1
1.150582463E1	1.704457367E-3	-1.257071880E-2	-1.398203748E-1	1.403946771E-1
1.151586462E1	3.991457298E-3	-1.684217378E-2	-1.576327479E-1	1.585801808E-1
1.152587463E1	3.677640260E-3	-1.182921876E-2	-1.362266761E-1	1.367887522E-1
1.153591463E1	2.653571530E-3	-1.144129712E-2	-1.258975697E-1	1.264442279E-1
1.154595463E1	-2.439730174E-3	6.103862738E-3	-1.387707996E-1	1.389263987E-1
1.155599563E1	-5.206132981E-3	1.054545343E-3	-1.523930579E-1	1.524856059E-1
1.156603563E1	-7.054910080E-3	8.305371408E-3	-1.522439539E-1	1.526334579E-1
1.157607563E1	-4.850600000E-3	-5.979189137E-4	-1.550886244E-1	1.551656123E-1
1.158608562E1	-1.075494592E-2	2.957498836E-3	-1.485023206E-1	1.489206329E-1
1.159612563E1	-2.959653627E-2	5.480362256E-3	-1.591296351E-1	1.619513201E-1
1.160616663E1	-2.459182673E-2	-2.306310874E-3	-1.624227870E-1	1.642901054E-1
1.161620663E1	-1.833867955E-2	-6.878997968E-3	-1.365272230E-1	1.379250173E-1
1.162624663E1	-8.354724421E-3	-1.483129348E-2	-1.369762892E-1	1.380299695E-1
1.163625663E1	-1.705239946E-4	-1.659643541E-2	-1.562855494E-1	1.571643843E-1
1.164629663E1	-2.476205894E-3	-1.843547153E-2	-1.490999061E-1	1.502557160E-1
1.165633662E1	3.606869536E-3	-1.268913862E-2	-1.064392054E-1	1.072535696E-1
1.166637763E1	1.694945877E-2	-2.174214050E-3	-1.012001002E-1	1.026327026E-1
1.167641763E1	2.509340135E-2	9.193933485E-3	-1.493998682E-1	1.517713011E-1
1.168645763E1	1.941670740E-2	1.910584110E-2	-1.745481580E-1	1.766609781E-1
1.169646763E1	1.485769218E-3	1.623806961E-2	-1.329341090E-1	1.339304287E-1
1.170650763E1	-3.143682405E-2	1.095212728E-2	-1.136242640E-1	1.184005759E-1
1.171654863E1	-3.935884652E-2	4.993179557E-3	-1.330837977E-1	1.388716956E-1
1.172658862E1	-2.902912794E-2	-2.547133933E-3	-1.496986610E-1	1.525085809E-1
1.173662863E1	-1.347908489E-2	-5.936710029E-3	-1.390713465E-1	1.398490961E-1
1.174666963E1	-5.988521270E-3	-1.195305639E-2	-1.235048890E-1	1.242263883E-1
1.175667863E1	3.744735347E-3	-1.161209063E-2	-1.324862123E-1	1.330468343E-1
1.176671963E1	9.169508797E-3	6.274427846E-3	-1.528444630E-1	1.532477674E-1
1.177675963E1	5.365968106E-3	9.385292754E-3	-1.446127528E-1	1.450162943E-1
1.178679963E1	1.293441789E-2	4.948667628E-3	-1.290451258E-1	1.297861047E-1
1.179683962E1	1.419535054E-2	2.054094425E-2	-1.458102626E-1	1.479326571E-1
1.180684963E1	8.353689167E-3	1.325668399E-2	-1.630250502E-1	1.637763438E-1
1.181688963E1	-6.432298101E-3	1.163499070E-2	-1.380270338E-1	1.386658196E-1
1.182693063E1	-8.729485263E-3	1.022709995E-3	-1.152755177E-1	1.156100983E-1
1.183697063E1	-2.677904398E-2	-5.273064757E-3	-1.417704213E-1	1.443737329E-1
1.184701063E1	-3.636825153E-2	-3.186156945E-3	-1.531467640E-1	1.574380280E-1
1.185705163E1	-2.904447460E-2	-1.012011417E-2	-1.477579701E-1	1.509251998E-1
1.186706062E1	-1.004656031E-2	-9.836569894E-5	-1.303934938E-1	1.307799918E-1
1.187710163E1	-5.263224989E-3	4.752909243E-3	-1.256040394E-1	1.258040794E-1
1.188714163E1	7.667504135E-3	1.442144935E-2	-1.387772316E-1	1.397350666E-1
1.189718163E1	2.594127046E-2	1.554635314E-2	-1.474597621E-1	1.505291335E-1
1.190722263E1	3.106426049E-2	2.045728795E-2	-1.456634974E-1	1.503374318E-1
1.191726263E1	1.570647891E-2	2.873964965E-2	-1.658714747E-1	1.690739692E-1
1.192727263E1	2.672493326E-3	1.239629818E-2	-1.497050929E-1	1.502412236E-1
1.193731262E1	-5.813026571E-3	-7.344523128E-3	-1.280002284E-1	1.283424784E-1
1.194735263E1	-1.515307078E-2	-1.617717634E-2	-1.296468043E-1	1.315279836E-1
1.195739263E1	-2.163292319E-2	-2.304945001E-2	-1.380305421E-1	1.416039938E-1
1.196743363E1	-2.540621368E-2	-2.008524972E-2	-1.341398048E-1	1.379941310E-1
1.197744263E1	-1.954200227E-2	-1.891016494E-2	-1.488092995E-1	1.512735661E-1
1.198748363E1	-3.238807925E-2	-1.519281586E-2	-1.401267689E-1	1.446213010E-1
1.199752363E1	-2.535911162E-2	-7.397906380E-3	-1.306963795E-1	1.333392560E-1
1.200756362E1	-5.076358484E-3	1.736106849E-3	-1.392286366E-1	1.393319660E-1
1.201760463E1	7.525542418E-3	1.651355113E-2	-1.518036586E-1	1.528845379E-1
1.202764463E1	9.192508226E-3	2.708880709E-2	-1.423738539E-1	1.452192135E-1
1.203765463E1	1.346919944E-2	1.311985914E-2	-1.296508974E-1	1.310072717E-1
1.204769463E1	1.721423143E-3	1.151680386E-2	-1.339930397E-1	1.344980846E-1
1.205773463E1	6.229702928E-3	2.313852869E-3	-1.366880214E-1	1.368494732E-1
1.206777463E1	-7.653486806E-3	2.134644846E-4	-1.354916811E-1	1.357078372E-1
1.207781563E1	-2.478606164E-3	-1.589402949E-2	-1.470188820E-1	1.478962993E-1
1.208785563E1	-1.564391142E-2	-2.271711803E-2	-1.522585720E-1	1.547367835E-1
1.209786563E1	-2.587838548E-2	-1.865158096E-2	-1.492647976E-1	1.526353567E-1
1.210790563E1	-3.242691755E-2	-2.307287999E-2	-1.564492714E-1	1.614318349E-1
1.211794563E1	-4.116734464E-2	-1.308271562E-2	-1.759088051E-1	1.811347991E-1
1.212798663E1	-3.941312056E-2	-8.118534596E-3	-1.685740578E-1	1.733104661E-1
1.213802663E1	-3.075897644E-2	-3.478604523E-3	-1.512113357E-1	1.543472817E-1
1.214803663E1	-1.118835251E-2	9.146644128E-4	-1.351952273E-1	1.356604781E-1
1.215807663E1	7.890532014E-3	1.059598160E-2	-1.384889638E-1	1.391176783E-1
1.216811663E1	6.531790416E-3	9.264227981E-3	-1.420814931E-1	1.425329467E-1
1.217815763E1	1.462053904E-2	-1.394560933E-4	-1.381901711E-1	1.389615163E-1
1.218819763E1	1.341334711E-2	3.012686502E-4	-1.215747231E-1	1.223128037E-1
1.219823763E1	1.139091742E-2	-1.282352865E-2	-1.307057351E-1	1.318263444E-1
1.220824763E1	5.609609705E-4	-1.517880995E-2	-1.447770596E-1	1.455716591E-1
1.221828763E1	1.683219241E-3	-1.069248806E-2	-1.575006008E-1	1.578721058E-1
1.222832763E1	1.006551694E-2	-1.770945291E-2	-1.432801723E-1	1.447209285E-1
1.223836863E1	-5.845310739E-3	-2.504008433E-2	-1.392385769E-1	1.415929192E-1
1.224840863E1	-1.968152460E-2	-1.359385820E-2	-1.405851907E-1	1.426055792E-1
1.225844863E1	-3.300121234E-2	-7.629063260E-4	-1.389380300E-1	1.428055959E-1
1.226845863E1	-2.917841467E-2	2.038216037E-3	-1.444765127E-1	1.474075877E-1
1.227849863E1	-2.673474904E-2	2.026199095E-2	-1.410336721E-1	1.449682439E-1
1.228853963E1	-2.853628304E-2	3.482510737E-2	-1.467206740E-1	1.534733324E-1
1.229857963E1	-1.030486563E-2	3.105041903E-2	-1.396853042E-1	1.434653372E-1
1.230861963E1	-2.570270406E-3	3.331333717E-2	-1.178307509E-1	1.224764083E-1
1.231862963E1	1.017246731E-2	2.610562061E-2	-1.263630080E-1	1.294318057E-1
1.232866963E1	9.793812130E-3	1.135730278E-3	-1.524076760E-1	1.527262529E-1
1.233871063E1	-2.036693134E-3	-1.508353231E-2	-1.567480642E-1	1.574852904E-1
1.234875063E1	-1.434861040E-3	-2.972648150E-2	-1.374388039E-1	1.406241350E-1
1.235879063E1	-1.715837111E-2	-2.721061646E-2	-1.407313710E-1	1.443611656E-1
1.236883063E1	-1.463524045E-2	-3.570433674E-2	-1.401332009E-1	1.453489041E-1
1.237884063E1	-1.509845414E-2	-2.953489382E-2	-1.489636660E-1	1.526120803E-1
1.238888063E1	-7.228903575E-3	-1.726617001E-2	-1.495624208E-1	1.507292122E-1
1.239892162E1	-9.495455667E-3	-1.212468588E-2	-1.429767019E-1	1.438037168E-1
1.240896163E1	-1.063216581E-2	1.585787726E-3	-1.522568178E-1	1.526358288E-1
1.241900163E1	-2.212730299E-2	2.014175758E-2	-1.559990358E-1	1.588427119E-1
1.242904263E1	-1.350982845E-2	2.560728252E-2	-1.396823806E-1	1.426513786E-1
1.243905163E1	-5.369201776E-3	2.564277238E-2	-1.359407473E-1	1.384422871E-1
1.244906779E1	4.976536120E-3	2.897846273E-2	-1.518077517E-1	1.546289451E-1
1.245910779E1	1.453903034E-3	2.759904517E-2	-1.574959230E-1	1.599024293E-1
1.246914779E1	-8.692518754E-3	1.025976213E-2	-1.540536672E-1	1.546394354E-1
1.247918779E1	-1.095389400E-2	-1.779211792E-3	-1.452214479E-1	1.456448500E-1
1.248919779E1	-2.056434225E-2	-1.217893708E-2	-1.348935109E-1	1.369944450E-1
1.249923879E1	-2.197920855E-2	-2.512731748E-2	-1.580946779E-1	1.615809236E-1
1.250927879E1	-7.663830781E-3	-3.010859247E-2	-1.452208632E-1	1.485071068E-1
1.251931879E1	-7.119765066E-3	-3.589528031E-2	-1.244135463E-1	1.296838182E-1
1.252935879E1	-9.831117822E-3	-3.632645308E-2	-1.321961904E-1	1.374485170E-1
1.253939979E1	-9.306046993E-3	-2.279993379E-2	-1.411769289E-1	1.433086346E-1
1.254940879E1	-9.682569423E-4	-7.356107924E-3	-1.592886794E-1	1.594613847E-1
1.255944979E1	1.319993802E-3	2.866656859E-3	-1.467148268E-1	1.467487667E-1
1.256948979E1	2.428813183E-3	9.165844009E-3	-1.305490297E-1	1.308929371E-1
1.257952979E1	1.845676190E-3	1.012118768E-2	-1.449191469E-1	1.452838742E-1
1.258957079E1	4.587111557E-3	2.415129385E-2	-1.533017153E-1	1.552602412E-1
1.259961079E1	-1.088752126E-2	1.257332264E-2	-1.488104689E-1	1.497370436E-1
1.260962079E1	-2.118028018E-2	-2.951418646E-3	-1.592880946E-1	1.607171809E-1
1.261966079E1	-3.522990828E-2	-2.001556279E-2	-1.705135792E-1	1.752616612E-1
1.262970079E1	-5.219158453E-2	-1.004892432E-2	-1.537484425E-1	1.626761383E-1
1.263974079E1	-4.197162459E-2	-1.573900519E-2	-1.464125258E-1	1.531207408E-1
1.264978179E1	-3.704389045E-2	-2.229582614E-2	-1.359331459E-1	1.426435201E-1
1.265979179E1	-1.373594040E-3	-1.364934279E-2	-1.393759865E-1	1.400494803E-1
1.266983179E1	1.182669943E-2	-5.332843401E-4	-1.357828724E-1	1.362979958E-1
1.267987179E1	2.635168789E-2	-4.087217445E-3	-1.336878151E-1	1.363214902E-1
1.268991179E1	3.237387691E-2	9.281472699E-3	-1.329393715E-1	1.371389446E-1
1.269995279E1	3.857454761E-2	1.965828421E-2	-1.320418239E-1	1.389585806E-1
1.270999279E1	3.880851389E-2	2.173651256E-2	-1.413213551E-1	1.481563436E-1
1.272000279E1	1.709427215E-2	8.370650089E-3	-1.574871522E-1	1.586331776E-1
1.273004279E1	-1.144229012E-3	-1.964847185E-4	-1.585349733E-1	1.585392242E-1
1.274008279E1	-5.753474621E-3	-1.124328207E-2	-1.538934535E-1	1.544108445E-1
1.275012379E1	-3.924097031E-2	-2.089523527E-2	-1.245527101E-1	1.322491671E-1
1.276016379E1	-4.849194156E-2	-3.189668016E-2	-1.299409193E-1	1.423148239E-1
1.277020379E1	-6.032013249E-2	-3.274496497E-2	-1.595787013E-1	1.737127313E-1
1.278021379E1	-4.940381027E-2	-1.403926985E-2	-1.490993214E-1	1.576973215E-1
1.279025379E1	-3.316553280E-2	-6.902386830E-3	-1.462552357E-1	1.501272443E-1
1.280029379E1	-1.447812508E-2	1.201239650E-2	-1.365242994E-1	1.378143610E-1
1.281033479E1	8.018860696E-3	3.587700319E-2	-1.360746485E-1	1.409530824E-1
1.282037479E1	2.456677050E-2	2.815289527E-2	-1.467019629E-1	1.513855266E-1
1.283038479E1	3.972027754E-2	4.004230837E-2	-1.404144520E-1	1.513185555E-1
1.284042479E1	3.455127723E-2	4.504944359E-2	-1.276914954E-1	1.397439127E-1
1.285046479E1	1.827200302E-2	6.015144945E-3	-1.260449195E-1	1.275043913E-1
1.286050579E1	2.561148293E-2	-1.502880603E-2	-1.464031702E-1	1.493844079E-1
1.287054579E1	1.912166969E-2	-2.044449717E-2	-1.449062830E-1	1.475853874E-1
1.288058579E1	-6.119453220E-3	-3.151936573E-2	-1.395174891E-1	1.431644086E-1
1.289059579E1	-2.713300153E-2	-3.385481218E-2	-1.348759693E-1	1.416823037E-1
1.290063579E1	-3.211189881E-2	-2.597922026E-2	-1.455038685E-1	1.512529989E-1
1.291067679E1	-3.860047179E-2	-2.484644556E-2	-1.513423133E-1	1.581513138E-1
1.292071679E1	-3.536486019E-2	-2.781620985E-3	-1.330808741E-1	1.377277379E-1
1.293075679E1	-2.260329147E-2	1.355625329E-2	-1.408646876E-1	1.433092495E-1
1.294079679E1	-1.132484616E-2	2.740011193E-2	-1.495472181E-1	1.524578260E-1
1.295080679E1	1.230073875E-3	4.437702293E-2	-1.622701746E-1	1.682332988E-1
1.296084679E1	4.464511891E-5	3.251459837E-2	-1.601739478E-1	1.634407986E-1
1.297088779E1	-1.116436408E-2	2.428508088E-2	-1.354753089E-1	1.380868115E-1
1.298092779E1	-7.915499739E-3	4.169937274E-3	-1.435584998E-1	1.438370133E-1
1.299096779E1	-4.800716512E-3	-8.133609449E-3	-1.452044910E-1	1.455113284E-1
1.300097779E1	-4.481226134E-3	-2.698115436E-2	-1.465516895E-1	1.490820639E-1
1.301101779E1	-8.905460187E-3	-5.063398678E-2	-1.401150745E-1	1.492492611E-1
1.302105879E1	-1.351173223E-2	-5.608900501E-2	-1.392163575E-1	1.506975036E-1
1.303109879E1	-1.055408949E-2	-4.353821243E-2	-1.546342957E-1	1.609929506E-1
1.304113879E1	-6.807139456E-3	-2.540251120E-2	-1.502933228E-1	1.525768908E-1
1.305117879E1	-8.541926685E-3	-8.127588644E-3	-1.473001331E-1	1.477712808E-1
1.306118879E1	-2.403533968E-4	5.144124515E-3	-1.297865528E-1	1.298886795E-1
1.307122879E1	2.490367119E-3	2.393613002E-2	-1.341281104E-1	1.362699169E-1
1.308126979E1	1.051912954E-2	3.296191951E-2	-1.432591224E-1	1.473781407E-1
1.309130979E1	-1.974058262E-3	3.452456048E-2	-1.470019251E-1	1.510145959E-1
1.310134979E1	-5.729348576E-3	3.796870755E-2	-1.508950013E-1	1.557040449E-1
1.311139079E1	-6.976983940E-3	1.732627299E-2	-1.420633668E-1	1.432860015E-1
1.312139979E1	-1.216701766E-2	5.011493219E-3	-1.508950013E-1	1.514676625E-1
1.313144079E1	-1.295703360E-2	-7.609283226E-4	-1.523924732E-1	1.529442043E-1
1.314148079E1	-1.922191061E-2	-1.472894893E-2	-1.528409547E-1	1.547474756E-1
1.315152079E1	-2.348448514E-2	-1.966344163E-2	-1.490987366E-1	1.522123689E-1
1.316156179E1	-1.923194224E-2	-1.921464499E-2	-1.423615748E-1	1.449340821E-1
1.317157079E1	-1.075624898E-2	-2.406426627E-2	-1.404150367E-1	1.428676602E-1
1.318161179E1	-8.003557437E-3	-1.119670991E-2	-1.499951148E-1	1.506252227E-1
1.319165179E1	-8.986043270E-3	-1.100642416E-3	-1.502939075E-1	1.505663277E-1
1.320169179E1	-6.693196980E-3	4.297105079E-3	-1.564299756E-1	1.566320570E-1
1.321173179E1	-1.255842594E-2	8.224985898E-3	-1.568796265E-1	1.575962616E-1
1.322177279E1	-1.827468909E-2	1.393316116E-2	-1.372704041E-1	1.391806778E-1
1.323178179E1	-1.067515084E-2	8.367502643E-3	-1.339772522E-1	1.346620884E-1
1.324182279E1	-1.660380039E-2	1.489124571E-2	-1.351741773E-1	1.370018014E-1
1.325186279E1	-4.693211684E-3	6.811448922E-3	-1.248456556E-1	1.251193821E-1
1.326190279E1	-8.473373791E-3	-6.677058893E-3	-1.386170179E-1	1.390361781E-1
1.327194379E1	-1.281207633E-2	-6.393578569E-3	-1.404144520E-1	1.411426423E-1
1.328198379E1	-4.404241030E-3	-1.085617356E-2	-1.489467090E-1	1.494067468E-1
1.329199379E1	1.066067042E-3	-1.494775357E-2	-1.425095093E-1	1.432952619E-1
1.330203379E1	-5.031094525E-3	-1.100393452E-2	-1.455038685E-1	1.460060760E-1
1.331207379E1	-5.909610697E-4	-1.245077322E-2	-1.477497840E-1	1.482746427E-1
1.332211479E1	6.867370916E-3	-9.417717392E-4	-1.362231678E-1	1.363994104E-1
1.333215479E1	7.445650266E-3	5.262073819E-3	-1.351747620E-1	1.354818933E-1
1.334216479E1	1.265854238E-2	6.283545848E-3	-1.362225831E-1	1.369536921E-1
1.335220479E1	1.489569908E-3	1.183728152E-2	-1.305344117E-1	1.310784982E-1
1.336224479E1	-1.846441867E-2	1.630951528E-2	-1.278400147E-1	1.301921826E-1
1.337228479E1	-7.968429603E-3	1.788143414E-2	-1.399653858E-1	1.413278132E-1
1.338232579E1	-1.682367055E-2	3.173014414E-3	-1.496945679E-1	1.506703938E-1
1.339236579E1	-1.887497201E-2	1.228129989E-3	-1.547839844E-1	1.559354184E-1
1.340237579E1	-1.644996723E-2	7.201727726E-3	-1.495448792E-1	1.506191794E-1
1.341241579E1	-2.382219611E-2	-8.295015441E-3	-1.493946058E-1	1.515092490E-1
1.342245579E1	-2.609660311E-2	-1.473883438E-2	-1.468498975E-1	1.498771441E-1
1.343249679E1	-2.444743933E-2	-2.633628870E-2	-1.393648767E-1	1.439230567E-1
1.344253679E1	-1.564020323E-2	-1.588416689E-2	-1.386164331E-1	1.403974296E-1
1.345257054E1	-1.865040809E-3	-1.653813228E-2	-1.381667823E-1	1.391655414E-1
1.346258054E1	3.176053368E-3	-9.196075941E-3	-1.450524634E-1	1.453783762E-1
1.347262054E1	9.040693038E-3	-4.455975755E-3	-1.431065100E-1	1.434610158E-1
1.348266054E1	7.723117208E-3	4.595171465E-3	-1.559791553E-1	1.562378284E-1
1.349270154E1	1.071121685E-3	7.405037242E-3	-1.514879090E-1	1.516725698E-1
1.350274154E1	1.599382645E-4	4.910340956E-3	-1.258905530E-1	1.259863817E-1
1.351275154E1	-3.967427468E-3	4.183363030E-4	-1.459488416E-1	1.460033556E-1
1.352279154E1	-8.232312619E-3	-5.618758542E-3	-1.612176758E-1	1.615254791E-1
1.353283154E1	-1.169744399E-2	-5.524919867E-3	-1.460996997E-1	1.466713237E-1
1.354287254E1	-1.484588525E-2	-1.498762427E-2	-1.266401660E-1	1.283852049E-1
1.355291254E1	-9.207212489E-3	-1.975275328E-2	-1.380165088E-1	1.397265212E-1
1.356295254E1	-2.080365325E-2	-8.702922687E-3	-1.574760425E-1	1.590824843E-1
1.357296254E1	-3.246836654E-2	-2.244768930E-3	-1.591226184E-1	1.624168757E-1
1.358300254E1	-1.650572248E-2	3.256501690E-3	-1.327785730E-1	1.338401776E-1
1.359304354E1	-1.028269075E-2	5.507300561E-3	-1.261922693E-1	1.267302368E-1
1.360308354E1	5.551882726E-3	2.264312791E-2	-1.392157727E-1	1.411544049E-1
1.361312354E1	1.493578163E-2	2.671574102E-2	-1.556815320E-1	1.586617402E-1
1.362316354E1	1.918712653E-2	1.000029193E-2	-1.390666687E-1	1.407397954E-1
1.363317354E1	-7.310596715E-3	9.154423666E-3	-1.456529725E-1	1.461233612E-1
1.364321354E1	-1.515751558E-2	-1.314988551E-3	-1.484976429E-1	1.492750127E-1
1.365325454E1	-1.052419560E-2	-6.615096680E-3	-1.499951148E-1	1.505093109E-1
1.366329454E1	-1.937053953E-2	-1.259933818E-2	-1.455044532E-1	1.473278895E-1
1.367333454E1	-1.549330450E-2	-2.179133477E-2	-1.377212244E-1	1.402926955E-1
1.368334454E1	-1.185449998E-2	-2.216200256E-2	-1.437093580E-1	1.458905860E-1
1.369338454E1	-1.540169165E-2	-1.265451214E-2	-1.559832484E-1	1.572517808E-1
1.370342554E1	-1.829503100E-2	-5.702236681E-3	-1.450553870E-1	1.463157167E-1
1.371346554E1	-1.305930962E-2	2.992445086E-3	-1.393672156E-1	1.400097178E-1
1.372350554E1	-1.284659089E-2	4.993490190E-3	-1.419125086E-1	1.425802579E-1
1.373354554E1	4.848403868E-3	1.207341767E-2	-1.489467090E-1	1.495138675E-1
1.374355554E1	9.291717318E-3	4.826218709E-3	-1.464020008E-1	1.467759321E-1
1.375359654E1	7.744786167E-3	1.129671101E-2	-1.456535572E-1	1.462961247E-1
1.376363654E1	6.224105246E-3	8.466859628E-3	-1.471504444E-1	1.475251859E-1
1.377367654E1	-3.071719112E-3	6.025085212E-3	-1.363734412E-1	1.365410289E-1
1.378371654E1	-1.243314135E-2	3.529260596E-3	-1.395174891E-1	1.401148402E-1
1.379375754E1	-2.080785137E-2	-1.213204972E-2	-1.390690076E-1	1.411394424E-1
1.380376654E1	-1.508168222E-2	-1.391991813E-2	-1.314348829E-1	1.330276276E-1
1.381380754E1	-1.094350834E-2	-8.272599592E-3	-1.407149988E-1	1.413821317E-1
1.382384754E1	-1.836014523E-2	-3.359650229E-3	-1.517931336E-1	1.529363841E-1
1.383388754E1	-5.453085909E-3	4.837671029E-3	-1.444595557E-1	1.446433630E-1
1.384392854E1	-5.504591656E-3	1.767313622E-2	-1.384714222E-1	1.397031676E-1
1.385393754E1	-6.903446067E-4	1.825473318E-2	-1.467054713E-1	1.478384495E-1
1.386397854E1	1.258638865E-3	7.367619630E-3	-1.493998682E-1	1.495867194E-1
1.387401854E1	2.990384285E-3	1.423671388E-2	-1.399694788E-1	1.407234217E-1
1.388405854E1	-5.078563752E-4	1.312014693E-4	-1.459570277E-1	1.459579702E-1
1.389409854E1	7.883634698E-3	1.402810989E-3	-1.413160926E-1	1.415427766E-1
1.390413954E1	-4.445998658E-3	-2.178617734E-3	-1.419148475E-1	1.420011874E-1
1.391414954E1	-1.778886312E-2	-1.766453442E-2	-1.434123194E-1	1.455869939E-1
1.392418954E1	-2.384580196E-2	-1.829923597E-2	-1.426632911E-1	1.457954009E-1
1.393422954E1	-2.225836285E-2	-1.837936567E-2	-1.489508021E-1	1.517220394E-1
1.394426954E1	-8.515151119E-3	-1.358921240E-2	-1.529923975E-1	1.538305828E-1
1.395431054E1	-5.053365907E-3	-1.093735849E-2	-1.426638758E-1	1.431717283E-1
1.396431954E1	-1.044877337E-2	-3.349422170E-3	-1.488005286E-1	1.492045335E-1
1.397436054E1	-1.214021754E-2	-1.437492287E-3	-1.464055091E-1	1.469150243E-1
1.398440054E1	-1.076869373E-2	6.718734009E-3	-1.429632533E-1	1.435256003E-1
1.399444054E1	3.929216143E-4	1.532217637E-2	-1.407179224E-1	1.415501931E-1
1.400448154E1	3.440662431E-4	1.141989083E-2	-1.428135645E-1	1.432698381E-1
1.401452154E1	-1.319076748E-3	3.830821607E-3	-1.567352003E-1	1.567875574E-1
1.402453154E1	-4.173094143E-3	3.166623591E-3	-1.459581971E-1	1.460521740E-1
1.403457154E1	-1.742217646E-2	-2.387253698E-3	-1.363781190E-1	1.375071727E-1
1.404461154E1	-1.174749136E-2	-1.291048771E-2	-1.387725538E-1	1.398660285E-1
1.405465154E1	-6.612938806E-3	-9.390230910E-3	-1.514955103E-1	1.519302374E-1
1.406469254E1	-1.020470123E-2	-1.810604945E-2	-1.444601405E-1	1.459475835E-1
1.407473254E1	-6.603194969E-3	-2.332278907E-2	-1.473042262E-1	1.492852629E-1
1.408474254E1	-6.329085608E-3	-1.197596560E-2	-1.410184693E-1	1.416675325E-1
1.409478254E1	-9.891168270E-3	-1.263569598E-3	-1.362278455E-1	1.365923048E-1
1.410482254E1	-7.579339657E-3	5.113116000E-4	-1.423644984E-1	1.425670306E-1
1.411486354E1	-9.207801208E-3	8.316051713E-3	-1.459576124E-1	1.464840091E-1
1.412490354E1	-1.091516876E-2	1.294611461E-2	-1.513464063E-1	1.522907663E-1
1.413491354E1	-1.155894606E-2	-1.068609267E-2	-1.432632154E-1	1.441254686E-1
1.414495354E1	-7.729120312E-3	-3.698066971E-3	-1.323353541E-1	1.326124464E-1
1.415499354E1	-2.681338952E-3	1.380477366E-3	-1.368260157E-1	1.368592484E-1
1.416503454E1	-7.100831280E-3	9.561156901E-4	-1.490993214E-1	1.492713757E-1
1.417507454E1	-5.514970464E-3	9.338460211E-4	-1.444589710E-1	1.445672206E-1
1.418511454E1	-1.660435085E-2	-3.062949716E-3	-1.396695167E-1	1.406863889E-1
1.419512454E1	-1.979342798E-2	-3.231669297E-3	-1.348794776E-1	1.363623737E-1
1.420516454E1	-2.876427534E-3	-6.571192313E-3	-1.305379200E-1	1.307348575E-1
1.421520454E1	4.232931316E-3	-2.453240440E-3	-1.471539527E-1	1.472352604E-1
1.422524554E1	7.874144964E-3	2.841938669E-3	-1.485017359E-1	1.487375015E-1
1.423528554E1	-4.030267050E-3	-1.606540773E-3	-1.441607630E-1	1.442260366E-1
1.424532554E1	-1.619192914E-2	1.157684745E-3	-1.585314649E-1	1.593604222E-1
1.425533554E1	-1.478157502E-2	8.651138283E-5	-1.628724378E-1	1.635418401E-1
1.426537554E1	-1.147789132E-2	-6.204105942E-3	-1.594295973E-1	1.599625875E-1
1.427541654E1	-5.940138416E-3	-1.287564653E-2	-1.377253175E-1	1.384533517E-1
1.428545654E1	-6.629362401E-3	-8.319217432E-3	-1.341327882E-1	1.345539397E-1
1.429549654E1	-1.559242851E-2	-6.926776115E-3	-1.500003773E-1	1.509676033E-1
1.430550654E1	-1.784348662E-2	-1.003002137E-2	-1.480550086E-1	1.494632963E-1
1.431554654E1	-7.798902605E-3	-8.950972538E-3	-1.441631019E-1	1.446511070E-1
1.432558754E1	-1.239161013E-2	-2.836173680E-3	-1.380270338E-1	1.386111754E-1
1.433562754E1	-1.031672451E-2	6.650723582E-3	-1.351817787E-1	1.357379100E-1
1.434566754E1	-1.574847380E-2	8.551932047E-3	-1.386246192E-1	1.397781636E-1
1.435570754E1	-6.802250978E-3	-1.856737649E-3	-1.317395228E-1	1.319280863E-1
1.436571754E1	3.417497693E-4	5.793028409E-3	-1.320389003E-1	1.321663617E-1
1.437575754E1	-1.925574052E-3	6.625443511E-3	-1.446133375E-1	1.447778358E-1
1.438579854E1	-6.201104675E-3	4.610821903E-3	-1.438643092E-1	1.440716934E-1
1.439583854E1	-8.266684996E-3	1.198942790E-2	-1.327867591E-1	1.335829625E-1
1.440587854E1	-4.436545183E-3	4.978438178E-3	-1.336848915E-1	1.338511038E-1
1.441591954E1	-1.030791600E-3	6.371957576E-3	-1.429661769E-1	1.431118168E-1
1.442592854E1	-3.843770278E-3	1.459204643E-3	-1.474568385E-1	1.475141453E-1
1.443596954E1	-6.679736964E-3	-3.586910488E-3	-1.465592909E-1	1.467552744E-1
1.444600954E1	-1.402788377E-2	1.065236154E-2	-1.464096022E-1	1.474653381E-1
1.445603863E1	-1.625734030E-2	9.763109679E-3	-1.579356337E-1	1.590700594E-1
1.446607863E1	-1.214264323E-2	7.247409099E-3	-1.567381239E-1	1.573747381E-1
1.447608863E1	-1.282536047E-2	-5.383202545E-3	-1.323382777E-1	1.330672329E-1
1.448612862E1	-9.209030037E-3	-7.155712880E-4	-1.417680824E-1	1.420686716E-1
1.449616963E1	-1.084250340E-2	-5.913412529E-3	-1.558388221E-1	1.563274346E-1
1.450620963E1	-9.522007965E-3	-7.550331415E-3	-1.549406898E-1	1.554165162E-1
1.451624963E1	-1.309083662E-2	-7.410258623E-3	-1.479053199E-1	1.486683073E-1
1.452629063E1	-1.783818302E-2	-6.656479435E-3	-1.407214308E-1	1.420036287E-1
1.453629963E1	-1.307887496E-2	-3.955294210E-3	-1.477568007E-1	1.483872416E-1
1.454634063E1	-9.638574264E-3	3.175284779E-3	-1.486549330E-1	1.490009183E-1
1.455638062E1	-1.650808878E-2	-3.127680221E-3	-1.504506129E-1	1.513858854E-1
1.456642063E1	-8.075346284E-3	-5.574940969E-3	-1.528468019E-1	1.531614704E-1
1.457646163E1	-6.564687857E-3	-3.671311392E-3	-1.461102247E-1	1.463036959E-1
1.458650163E1	-8.156218302E-3	-1.005862248E-2	-1.482052821E-1	1.487699749E-1
1.459651163E1	-1.114149712E-2	2.954351390E-4	-1.411699122E-1	1.416091959E-1
1.460655163E1	-8.466377689E-3	7.220278932E-3	-1.371289015E-1	1.375796046E-1
1.461659163E1	-6.321250111E-3	2.744710436E-3	-1.441642714E-1	1.443288910E-1
1.462663162E1	1.163410620E-3	4.640103662E-3	-1.464090174E-1	1.464871478E-1
1.463667263E1	-5.053742778E-3	1.233492983E-2	-1.492536879E-1	1.498477699E-1
1.464668163E1	1.814113788E-3	4.734166176E-3	-1.366798353E-1	1.367738305E-1
1.465672263E1	-1.598861734E-3	1.756827920E-3	-1.458114320E-1	1.458307804E-1
1.466676263E1	-3.099090819E-3	-1.638403530E-3	-1.492542726E-1	1.492954340E-1
1.467680263E1	-8.591612029E-3	-4.134214441E-3	-1.426685536E-1	1.429867956E-1
1.468684363E1	-1.278444938E-2	-1.207412117E-2	-1.515001881E-1	1.525173221E-1
1.469688363E1	-9.829247170E-3	-1.560841585E-2	-1.443157142E-1	1.454897320E-1
1.470689363E1	-1.695306988E-2	-1.040061150E-2	-1.483567250E-1	1.496839909E-1
1.471693363E1	-1.227891076E-2	-7.953094938E-3	-1.546442360E-1	1.553346809E-1
1.472697363E1	-1.904846644E-2	1.515196301E-3	-1.495548195E-1	1.507706335E-1
1.473701363E1	-1.412142551E-2	5.781041617E-3	-1.290480494E-1	1.299470437E-1
1.474705463E1	-7.267637952E-3	1.711542148E-2	-1.321920973E-1	1.334934710E-1
1.475709463E1	-6.413453963E-3	3.992414894E-4	-1.506043947E-1	1.507414193E-1
1.476710463E1	-5.806540959E-3	1.926219016E-3	-1.607826430E-1	1.608989885E-1
1.477714463E1	-1.222485713E-2	9.240912208E-3	-1.371312404E-1	1.379848494E-1
1.478718463E1	-1.986458128E-2	1.282970020E-2	-1.265033412E-1	1.286945925E-1
1.479722563E1	-1.467695211E-2	7.997163758E-4	-1.417721754E-1	1.425321094E-1
1.480726563E1	-1.078643066E-2	2.187246946E-3	-1.431199586E-1	1.435425153E-1
1.481727563E1	-6.852120190E-3	-3.974293093E-3	-1.535993385E-1	1.538034569E-1
1.482731563E1	-3.721268255E-3	-8.120795824E-3	-1.393777406E-1	1.396637023E-1
1.483735563E1	-6.260926716E-3	-1.027206412E-2	-1.341392201E-1	1.346775589E-1
1.484739663E1	-1.591430175E-2	-1.509730525E-2	-1.521030360E-1	1.536766970E-1
1.485743663E1	-1.383945039E-2	-6.590835303E-3	-1.552470839E-1	1.560020082E-1
1.486747663E1	-9.425492361E-3	-2.636893261E-3	-1.467154115E-1	1.470415081E-1
1.487748662E1	-3.830279141E-3	-1.640363261E-3	-1.369856447E-1	1.370490010E-1
1.488752663E1	-6.451638452E-3	5.775354286E-3	-1.459663832E-1	1.462229920E-1
1.489756663E1	-4.220881426E-3	8.743679607E-3	-1.550968105E-1	1.554004131E-1
1.490760763E1	-4.928234921E-3	-1.804583226E-3	-1.447688735E-1	1.448639732E-1
1.491764763E1	-9.355876234E-3	-8.837792370E-4	-1.395303530E-1	1.398464618E-1
1.492768763E1	-7.889829663E-3	-4.802802438E-4	-1.446203542E-1	1.448362072E-1
1.493769763E1	-1.679141493E-2	1.890455070E-3	-1.423761928E-1	1.433754014E-1
1.494773763E1	-1.381511250E-2	7.247212669E-4	-1.390830410E-1	1.397693630E-1
1.495777863E1	-1.884041120E-3	5.130598261E-3	-1.428246742E-1	1.429292140E-1
1.496781863E1	-2.113850399E-3	-2.365705795E-3	-1.462675148E-1	1.463019167E-1
1.497785863E1	-7.013881356E-3	9.412555397E-3	-1.410278249E-1	1.415155049E-1
1.498786863E1	-1.185724771E-2	1.028261195E-2	-1.471650624E-1	1.479996015E-1
1.499790863E1	-6.684197750E-3	3.911563433E-3	-1.384837013E-1	1.387000878E-1
1.500794963E1	-9.453484764E-3	-3.839957882E-3	-1.492612892E-1	1.496096458E-1
1.501798962E1	-8.596274955E-3	3.276966945E-3	-1.513563466E-1	1.516356756E-1
1.502802963E1	-5.377927489E-3	-3.834558344E-3	-1.450688356E-1	1.452191207E-1
1.503806963E1	-7.015738303E-3	-2.786358143E-3	-1.419253725E-1	1.421259854E-1
1.504807963E1	-9.584390447E-3	-1.172039660E-2	-1.498582900E-1	1.506211649E-1
1.505811963E1	-8.308523994E-3	-1.112778129E-2	-1.461160719E-1	1.467745399E-1
1.506816063E1	-2.371537593E-3	-9.658220680E-3	-1.318956435E-1	1.322700502E-1
1.507820063E1	-3.745232132E-3	-7.035456668E-3	-1.474638551E-1	1.476790879E-1
1.508824062E1	-4.911681705E-3	-1.295931196E-2	-1.407278627E-1	1.414086268E-1
1.509825063E1	-6.194493439E-3	-6.279128459E-3	-1.486613649E-1	1.489228009E-1
1.510829063E1	-9.227503584E-3	2.134818435E-3	-1.489595729E-1	1.492603719E-1
1.511833163E1	-1.501521696E-2	6.428205050E-3	-1.386304665E-1	1.395893434E-1
1.512837163E1	-1.621839008E-2	-6.885324838E-4	-1.407266933E-1	1.416598477E-1
1.513841163E1	-1.618464525E-2	1.056484060E-2	-1.504558754E-1	1.516922181E-1
1.514845163E1	-1.113844561E-2	7.855926091E-3	-1.473124123E-1	1.479416350E-1
1.515846162E1	-8.674470044E-3	-4.757349472E-4	-1.498571205E-1	1.501087250E-1
1.516850263E1	-4.133980324E-3	-1.062288336E-3	-1.414745522E-1	1.415389245E-1
1.517854263E1	1.259595033E-3	1.654044832E-3	-1.432714015E-1	1.432864855E-1
1.518858263E1	-9.519633675E-3	-1.554628462E-4	-1.515036964E-1	1.518025613E-1
1.519862263E1	-8.287613917E-3	-1.488148361E-3	-1.438689870E-1	1.441151780E-1
1.520866363E1	-4.568279983E-4	-7.515915069E-3	-1.443174684E-1	1.445137687E-1
1.521867263E1	-1.276769802E-3	-5.745844119E-3	-1.425212038E-1	1.426426948E-1
1.522871362E1	-3.401924628E-3	-3.194096368E-3	-1.522509706E-1	1.523224652E-1
1.523875363E1	-4.277160020E-3	-1.658690628E-3	-1.428194118E-1	1.428930710E-1
1.524879363E1	-8.362621017E-3	-8.259479902E-3	-1.410231471E-1	1.415121212E-1
1.525883463E1	-6.106523678E-3	-1.317812573E-2	-1.494057155E-1	1.501100278E-1
1.526884363E1	-1.418937655E-3	-6.316441004E-3	-1.516510463E-1	1.517891651E-1
1.527888463E1	-3.353756761E-3	-7.427288638E-4	-1.456634974E-1	1.457039938E-1
1.528892463E1	-1.554164110E-2	3.048336245E-3	-1.482087904E-1	1.490526099E-1
1.529896462E1	-6.444510444E-3	-6.766658337E-3	-1.393777406E-1	1.396906366E-1
1.530900463E1	-1.516638005E-2	-9.107298763E-3	-1.462628371E-1	1.473288141E-1
1.531904563E1	-9.078685093E-3	-2.337397048E-3	-1.462628371E-1	1.465629675E-1
1.532905563E1	-5.943879149E-3	6.707035010E-3	-1.374317873E-1	1.377236732E-1
1.533909563E1	-2.710236132E-3	7.965278160E-4	-1.330902296E-1	1.331202053E-1
1.534913563E1	3.918698863E-3	2.748036040E-3	-1.535975844E-1	1.536721374E-1
1.535917563E1	-4.433107089E-3	1.023854313E-2	-1.503044325E-1	1.507179572E-1
1.536921662E1	-5.909962443E-3	-1.598505420E-3	-1.380299574E-1	1.381656687E-1
1.537925663E1	-1.015064532E-2	-8.918557037E-4	-1.357857960E-1	1.361675931E-1
1.538926663E1	-1.676595156E-3	-1.242752597E-3	-1.389286745E-1	1.389443485E-1
1.539930663E1	-4.080987648E-3	1.705322172E-3	-1.443168837E-1	1.443846443E-1
1.540934663E1	-7.622038036E-3	8.359097270E-4	-1.426708925E-1	1.428767923E-1
1.541938763E1	-1.951878243E-3	3.847234924E-3	-1.440180910E-1	1.440826900E-1
1.542942763E1	-1.636780928E-2	2.855542582E-3	-1.507534987E-1	1.516663333E-1
1.543943762E1	-7.450557587E-3	6.832133448E-3	-1.446156764E-1	1.449685577E-1
1.544946338E1	-6.874299638E-3	1.334380293E-3	-1.425194496E-1	1.426913805E-1
1.545950337E1	-8.742168696E-3	-6.516744685E-3	-1.336872303E-1	1.341311635E-1
1.546954338E1	-8.048957298E-3	-6.552695925E-3	-1.419195253E-1	1.422985425E-1
1.547958438E1	-7.891525013E-3	9.746714635E-4	-1.550927174E-1	1.552964170E-1
1.548962438E1	-6.898168155E-3	-5.835461835E-3	-1.541940004E-1	1.544584963E-1
1.549963438E1	-1.078291434E-2	3.285386022E-3	-1.431170350E-1	1.435602686E-1
1.550967438E1	-2.880333577E-3	-1.473205984E-3	-1.423685914E-1	1.424053457E-1
1.551971438E1	-3.208736677E-3	-5.338781979E-3	-1.444642335E-1	1.445984556E-1
1.552975537E1	-9.740447722E-4	-8.642851682E-3	-1.431170350E-1	1.433810774E-1
1.553979538E1	8.462545593E-4	-8.828898207E-3	-1.342854005E-1	1.345779862E-1
1.554983538E1	-1.206842013E-2	-4.197611050E-3	-1.434164125E-1	1.439844925E-1
1.555984538E1	-4.499350218E-3	-2.268838445E-3	-1.537443495E-1	1.538269052E-1
1.556988538E1	-6.134237425E-3	5.050582769E-3	-1.504511976E-1	1.506608779E-1
1.557992638E1	-4.904252201E-4	-5.190989035E-3	-1.492542726E-1	1.493453205E-1
1.558996638E1	-9.312233393E-3	-2.359904260E-3	-1.404226381E-1	1.407508583E-1
1.560000637E1	-4.670472068E-3	1.450013551E-2	-1.498541969E-1	1.506265168E-1
1.561001638E1	-5.201197680E-3	4.918061108E-3	-1.561405385E-1	1.563045346E-1
1.562005638E1	-2.831534165E-3	-1.045737974E-3	-1.410213929E-1	1.410536934E-1
1.563009638E1	-1.037882035E-2	-3.480696729E-3	-1.408711195E-1	1.412958155E-1
1.564013738E1	-8.083169219E-3	-4.312280430E-3	-1.489537257E-1	1.492352029E-1
1.565017738E1	-1.852775932E-3	1.562302932E-3	-1.422171485E-1	1.422377970E-1
1.566021738E1	-7.641417216E-4	8.186398842E-3	-1.380258644E-1	1.382705329E-1
1.567022737E1	-5.535612734E-3	2.881352557E-4	-1.422177333E-1	1.423257169E-1
1.568026738E1	1.953021419E-5	1.669074004E-3	-1.462593287E-1	1.462688532E-1
1.569030838E1	4.185389284E-3	5.237026722E-3	-1.404214686E-1	1.405814098E-1
1.570034838E1	-5.445591880E-3	6.820841013E-3	-1.429655921E-1	1.432317663E-1
1.571038838E1	-1.464225711E-2	-2.561331703E-3	-1.446127528E-1	1.453747034E-1
1.572042838E1	-9.714328826E-3	-4.149618200E-3	-1.414692897E-1	1.418631292E-1
1.573043838E1	-1.246173104E-2	4.322567875E-3	-1.474568385E-1	1.480455962E-1
1.574047837E1	-3.916650625E-3	-6.164015969E-4	-1.485046595E-1	1.485575781E-1
1.575051938E1	-6.124664893E-3	-7.702614837E-3	-1.396736097E-1	1.400198523E-1
1.576055938E1	-5.517707920E-3	-6.803957177E-3	-1.453617811E-1	1.456255003E-1
1.577059938E1	-6.747684579E-3	-3.980405261E-3	-1.476071119E-1	1.478148652E-1
1.578060938E1	-3.466336504E-3	1.678968589E-3	-1.508996791E-1	1.509488243E-1
1.579064938E1	-3.952941334E-3	3.215466114E-3	-1.450624037E-1	1.451518719E-1
1.580069038E1	-4.637966631E-3	-4.280426810E-3	-1.461102247E-1	1.462464719E-1
1.581073038E1	-1.982317455E-4	1.863580719E-3	-1.465592909E-1	1.465712727E-1
1.582077038E1	5.770802137E-3	-3.244067221E-3	-1.500015467E-1	1.501475613E-1
1.583081138E1	-1.252796788E-3	3.772198702E-3	-1.488040370E-1	1.488571140E-1
1.584082038E1	-9.649798177E-3	5.217712638E-3	-1.422177333E-1	1.426402005E-1
1.585086138E1	-1.892532887E-2	-5.188079132E-4	-1.459593666E-1	1.471821114E-1
1.586090138E1	-1.627643968E-2	2.576370011E-3	-1.526947743E-1	1.535814255E-1
1.587094138E1	-1.009066453E-2	-3.034124770E-3	-1.492513490E-1	1.496228345E-1
1.588098137E1	-9.995185897E-3	-3.174955873E-3	-1.386234498E-1	1.390195847E-1
1.589099138E1	-3.245208399E-3	-1.932874792E-3	-1.570357472E-1	1.570811678E-1
1.590103138E1	-2.493059179E-3	-5.887127467E-3	-1.425153565E-1	1.426586852E-1
1.591107238E1	-1.188814316E-2	-4.403063022E-3	-1.471557069E-1	1.477007684E-1
